Temperature (K)	Resistance (ohm)	Applied Current (mA)
294.6395	57551.91864	0.01
294.644	57655.09871	0.01
294.6365	57673.69511	0.01
294.6465	57687.10393	0.01
294.6405	57699.66725	0.01
294.64	57701.93759	0.01
294.6345	57710.26813	0.01
294.637	57711.32053	0.01
294.6345	57710.84421	0.01
294.6405	57714.88473	0.01
294.638	57725.53141	0.01
294.6425	57718.83108	0.01
294.637	57717.3641	0.01
294.6385	57719.68521	0.01
294.633	57733.21103	0.01
294.6325	57726.43678	0.01
294.638	57731.01768	0.01
294.638	57731.26469	0.01
294.6345	57734.69411	0.01
294.633	57729.49408	0.01
294.638	57728.8518	0.01
294.638	57731.6928	0.01
294.6315	57740.75355	0.01
294.635	57729.50206	0.01
294.6365	57737.49845	0.01
294.6305	57735.8617	0.01
294.634	57730.52609	0.01
294.6415	57741.17671	0.01
294.6405	57737.85856	0.01
294.631	57742.21725	0.01
294.6335	57743.18136	0.01
294.6325	57745.13113	0.01
294.639	57747.85809	0.01
294.627	57739.6224	0.01
294.628	57739.42388	0.01
294.634	57742.14494	0.01
294.638	57742.86701	0.01
294.6305	57738.98163	0.01
294.6345	57745.70485	0.01
294.6365	57740.44908	0.01
294.631	57738.45634	0.01
294.6305	57740.96285	0.01
294.6355	57749.3848	0.01
294.636	57748.52235	0.01
294.632	57745.81956	0.01
294.6225	57747.79359	0.01
294.6305	57747.0686	0.01
294.633	57745.94835	0.01
294.635	57746.22094	0.01
294.6225	57749.76579	0.01
294.626	57747.45931	0.01
294.623	57750.35429	0.01
294.626	57749.21083	0.01
294.6215	57755.79954	0.01
294.625	57749.81366	0.01
294.6245	57753.64876	0.01
294.628	57753.57529	0.01
294.626	57752.57654	0.01
294.626	57753.90126	0.01
294.6225	57751.7007	0.01
294.618	57751.75805	0.01
294.623	57752.92334	0.01
294.626	57760.78375	0.01
294.619	57756.16703	0.01
294.608	57756.89244	0.01
294.612	57755.17231	0.01
294.6135	57754.85388	0.01
294.6185	57757.22388	0.01
294.609	57756.2807	0.01
294.6115	57756.98364	0.01
294.6075	57762.01395	0.01
294.612	57754.9842	0.01
294.611	57762.0837	0.01
294.606	57764.82345	0.01
294.6015	57760.47976	0.01
294.602	57762.94309	0.01
294.5985	57768.07193	0.01
294.597	57770.27371	0.01
294.6035	57774.68791	0.01
294.586	57776.79276	0.01
294.5955	57769.24639	0.01
294.594	57778.60956	0.01
294.5885	57776.0128	0.01
294.5925	57772.44031	0.01
294.5835	57781.07526	0.01
294.583	57779.37243	0.01
294.58	57777.64526	0.01
294.578	57779.62763	0.01
294.5715	57781.17495	0.01
294.5755	57788.87701	0.01
294.5675	57798.19128	0.01
294.571	57783.51638	0.01
294.5615	57793.3603	0.01
294.5605	57793.49903	0.01
294.5605	57787.59791	0.01
294.5685	57795.197	0.01
294.5575	57804.14926	0.01
294.5535	57801.16346	0.01
294.542	57798.61366	0.01
294.5415	57800.63054	0.01
294.5395	57813.20979	0.01
294.532	57808.1305	0.01
294.532	57806.00871	0.01
294.521	57810.239	0.01
294.5215	57807.94479	0.01
294.5215	57821.46473	0.01
294.517	57819.32111	0.01
294.518	57820.51413	0.01
294.511	57828.08008	0.01
294.512	57834.44924	0.01
294.511	57837.87756	0.01
294.498	57832.21559	0.01
294.491	57837.35738	0.01
294.4905	57838.89854	0.01
294.4795	57832.97283	0.01
294.4815	57845.88941	0.01
294.486	57843.59085	0.01
294.4675	57849.74608	0.01
294.454	57853.10286	0.01
294.455	57861.919	0.01
294.4585	57858.43648	0.01
294.45	57863.79294	0.01
294.4395	57873.67945	0.01
294.4425	57873.60133	0.01
294.4255	57876.66066	0.01
294.431	57880.17413	0.01
294.415	57881.61944	0.01
294.421	57887.54173	0.01
294.402	57883.48683	0.01
294.401	57893.82423	0.01
294.3965	57892.20234	0.01
294.39	57861.79675	0.01
294.3885	55716.49494	0.01
294.38	49872.8305	0.01
294.3735	49911.28218	0.01
294.368	49903.53494	0.01
294.352	49969.04514	0.01
294.3525	49832.9447	0.01
294.345	49920.69091	0.01
294.3405	49920.27935	0.01
294.331	49934.42751	0.01
294.3265	49923.04781	0.01
294.3155	49893.29096	0.01
294.3105	49860.25299	0.01
294.2965	49984.48423	0.01
294.2875	50022.47084	0.01
294.2805	49921.39694	0.01
294.2665	49998.4019	0.01
294.2645	49900.43458	0.01
294.2505	50013.31809	0.01
294.2545	49903.69891	0.01
294.228	49970.37544	0.01
294.2225	49968.43948	0.01
294.2155	50003.87681	0.01
294.212	49936.5366	0.01
294.2035	49931.39578	0.01
294.1875	49943.25968	0.01
294.1755	50001.4497	0.01
294.172	49988.06614	0.01
294.1615	50024.40289	0.01
294.1485	49998.99531	0.01
294.138	58077.22961	0.01
294.13	58089.50721	0.01
294.114	58086.56859	0.01
294.097	58103.6109	0.01
294.1035	58105.91965	0.01
294.0865	58111.00226	0.01
294.0725	58113.9368	0.01
294.0615	58123.5085	0.01
294.0485	58137.37073	0.01
294.04	58132.14209	0.01
294.0235	58147.05201	0.01
294.0215	58155.16019	0.01
294.0075	58159.34364	0.01
293.9965	58174.63241	0.01
293.977	58186.73893	0.01
293.9705	58193.623	0.01
293.951	58207.51275	0.01
293.933	58213.29694	0.01
293.9325	58223.29029	0.01
293.9195	58229.02743	0.01
293.897	58234.54118	0.01
293.884	58249.30774	0.01
293.8765	58252.45685	0.01
293.856	58269.38071	0.01
293.8485	58271.8144	0.01
293.8345	58291.01883	0.01
293.8205	58295.89894	0.01
293.804	58305.25671	0.01
293.792	58317.2854	0.01
293.7765	58336.98654	0.01
293.7595	58340.26918	0.01
293.7465	58361.89089	0.01
293.7325	58376.53833	0.01
293.716	58381.87775	0.01
293.702	58390.21151	0.01
293.6885	58408.90403	0.01
293.6665	58411.87803	0.01
293.6535	58420.95406	0.01
293.634	58433.64386	0.01
293.624	58449.06559	0.01
293.612	58454.75515	0.01
293.5895	58461.84236	0.01
293.569	58485.32161	0.01
293.552	58493.30251	0.01
293.538	58512.96708	0.01
293.518	58525.43574	0.01
293.4985	58531.34335	0.01
293.48	58540.3475	0.01
293.466	58559.0683	0.01
293.4435	58566.46631	0.01
293.4295	58582.37538	0.01
293.4125	58596.18811	0.01
293.395	58608.77493	0.01
293.377	58616.28496	0.01
293.351	58632.18404	0.01
293.334	58653.23605	0.01
293.315	58661.85079	0.01
293.2945	58671.69146	0.01
293.2765	58684.58391	0.01
293.2545	58706.43585	0.01
293.233	58715.56333	0.01
293.221	58728.87999	0.01
293.195	58739.19711	0.01
293.1705	58762.95629	0.01
293.158	58771.45676	0.01
293.1315	58786.91556	0.01
293.1115	58801.1646	0.01
293.09	58820.78085	0.01
293.066	58842.79693	0.01
293.0485	58855.83966	0.01
293.0215	58865.56243	0.01
292.995	58890.06564	0.01
292.9785	58892.76334	0.01
292.9625	58908.569	0.01
292.928	58932.05279	0.01
292.9085	58947.95308	0.01
292.8975	58970.88078	0.01
292.8685	58985.17828	0.01
292.844	58998.55241	0.01
292.8225	59012.06116	0.01
292.798	59033.71016	0.01
292.77	59046.25688	0.01
292.7505	59067.62994	0.01
292.7225	59076.48228	0.01
292.699	59104.66925	0.01
292.6805	59123.5638	0.01
292.6515	59137.92354	0.01
292.627	59160.44968	0.01
292.601	59174.75109	0.01
292.5775	59191.8984	0.01
292.5505	59204.1317	0.01
292.5255	59225.80531	0.01
292.4975	59254.45473	0.01
292.475	59273.70149	0.01
292.4455	59286.4348	0.01
292.4115	59307.24701	0.01
292.395	59327.15021	0.01
292.3615	59348.16569	0.01
292.3375	59373.90121	0.01
292.32	59385.18595	0.01
292.28	59406.55263	0.01
292.2555	59433.19934	0.01
292.223	59449.42863	0.01
292.202	59468.04283	0.01
292.1745	59493.60379	0.01
292.145	59526.23415	0.01
292.1095	59533.82326	0.01
292.0915	59562.63879	0.01
292.062	59583.2709	0.01
292.022	59607.71488	0.01
291.992	59627.3768	0.01
291.973	59653.18739	0.01
291.943	59673.5916	0.01
291.9155	59679.78333	0.01
291.8795	59707.31844	0.01
291.855	59730.25074	0.01
291.8185	59761.99629	0.01
291.7855	59777.55808	0.01
291.758	59793.75404	0.01
291.7235	59834.45216	0.01
291.6955	59855.91966	0.01
291.6615	59884.90204	0.01
291.638	59898.07668	0.01
291.5975	59927.58008	0.01
291.5665	59956.61113	0.01
291.5385	59977.19036	0.01
291.505	59996.95236	0.01
291.4725	60024.92241	0.01
291.4365	60048.39479	0.01
291.4075	60069.56209	0.01
291.372	60092.35646	0.01
291.339	60116.72651	0.01
291.309	60135.84131	0.01
291.268	60172.04271	0.01
291.245	60204.0006	0.01
291.2035	60237.41198	0.01
291.175	60251.32818	0.01
291.134	60288.99558	0.01
291.1095	60309.2409	0.01
291.076	60337.39955	0.01
291.0305	60359.6921	0.01
291.0025	60390.2295	0.01
290.968	60415.25746	0.01
290.9305	60448.14209	0.01
290.893	60467.90759	0.01
290.8605	60494.24093	0.01
290.8305	60530.93796	0.01
290.792	60550.43896	0.01
290.7565	60584.82318	0.01
290.722	60624.04851	0.01
290.6835	60654.44583	0.01
290.647	60674.50896	0.01
290.619	60707.70035	0.01
290.5735	60728.83388	0.01
290.534	60763.50691	0.01
290.497	60785.42978	0.01
290.462	60817.10391	0.01
290.4265	60854.59333	0.01
290.3905	60880.54114	0.01
290.3515	60912.85863	0.01
290.304	60931.89934	0.01
290.271	60975.11511	0.01
290.238	61000.31486	0.01
290.192	61027.45974	0.01
290.1545	61070.58135	0.01
290.1205	61097.5624	0.01
290.0715	61124.40803	0.01
290.034	61156.80009	0.01
290.0025	61196.71109	0.01
289.9515	61229.47693	0.01
289.92	61265.17059	0.01
289.877	61286.03753	0.01
289.8385	61314.41965	0.01
289.8015	61360.27796	0.01
289.7655	61394.51758	0.01
289.72	61428.84958	0.01
289.6835	61461.91048	0.01
289.629	61491.34301	0.01
289.596	61525.15304	0.01
289.547	61563.0421	0.01
289.502	61607.27644	0.01
289.466	61632.4916	0.01
289.428	61667.84084	0.01
289.382	61699.21186	0.01
289.338	61735.81434	0.01
289.2915	61768.56904	0.01
289.256	61815.7548	0.01
289.2055	61840.08944	0.01
289.1645	61872.73125	0.01
289.1185	61922.03473	0.01
289.077	61955.35388	0.01
289.034	61990.52069	0.01
288.986	62025.21119	0.01
288.9495	62061.76173	0.01
288.8995	62098.42949	0.01
288.859	62137.29239	0.01
288.8155	62172.85896	0.01
288.764	62203.99134	0.01
288.7175	62244.76253	0.01
288.6795	62292.3034	0.01
288.633	62329.47566	0.01
288.5865	62354.90729	0.01
288.5345	62395.57738	0.01
288.4915	62451.46128	0.01
288.4455	62493.4223	0.01
288.3945	62521.76981	0.01
288.348	62549.15503	0.01
288.302	62590.69925	0.01
288.2545	62632.67078	0.01
288.21	62682.57985	0.01
288.161	62718.00354	0.01
288.1115	62760.69855	0.01
288.0605	62791.896	0.01
288.016	62836.38604	0.01
287.978	62874.82515	0.01
287.9235	62910.25721	0.01
287.8735	62953.05393	0.01
287.823	62993.06668	0.01
287.777	63040.23271	0.01
287.7285	63079.01464	0.01
287.684	63123.84053	0.01
287.6295	63183.17178	0.01
287.5805	63216.43135	0.01
287.5255	63251.09759	0.01
287.476	63302.61173	0.01
287.42	63329.48209	0.01
287.3785	63377.68041	0.01
287.324	63434.71014	0.01
287.282	63448.62094	0.01
287.2235	63499.23729	0.01
287.169	63549.94234	0.01
287.1155	63580.51568	0.01
287.0715	63647.08298	0.01
287.0195	63681.87156	0.01
286.964	63726.14609	0.01
286.918	63778.52435	0.01
286.862	63826.65805	0.01
286.807	63872.66525	0.01
286.7455	63897.33049	0.01
286.7045	63951.76386	0.01
286.6475	64000.49188	0.01
286.5925	64039.58243	0.01
286.541	64098.08479	0.01
286.4875	64142.20481	0.01
286.4375	64182.06426	0.01
286.38	64229.63518	0.01
286.321	64271.02326	0.01
286.272	64320.59069	0.01
286.215	64377.69908	0.01
286.1615	64403.71803	0.01
286.1035	64482.88559	0.01
286.05	64511.57601	0.01
285.994	64564.18026	0.01
285.9425	64620.90404	0.01
285.8825	64688.19679	0.01
285.8315	64696.51099	0.01
285.78	64760.49585	0.01
285.724	64813.70169	0.01
285.669	64861.31798	0.01
285.62	64912.25838	0.01
285.555	64965.15378	0.01
285.5045	65012.01373	0.01
285.4515	65065.24886	0.01
285.3925	65110.5599	0.01
285.34	65174.07439	0.01
285.2765	65214.87188	0.01
285.217	65255.63935	0.01
285.1645	65299.43179	0.01
285.1105	65367.21819	0.01
285.052	65433.498	0.01
284.9985	65460.71273	0.01
284.942	65517.54334	0.01
284.881	65570.48645	0.01
284.824	65627.30894	0.01
284.76	65670.20876	0.01
284.7055	65733.1774	0.01
284.642	65774.45109	0.01
284.592	65841.30108	0.01
284.527	65877.56511	0.01
284.475	65957.58191	0.01
284.4125	65999.28805	0.01
284.3535	66037.79329	0.01
284.299	66096.52305	0.01
284.237	66163.6497	0.01
284.18	66210.92614	0.01
284.117	66268.16878	0.01
284.059	66329.08529	0.01
283.998	66393.66334	0.01
283.939	66452.79749	0.01
283.879	66507.57751	0.01
283.8145	66564.00676	0.01
283.755	66615.47986	0.01
283.6965	66666.68043	0.01
283.639	66707.85025	0.01
283.577	66766.47394	0.01
283.508	66818.1038	0.01
283.4475	66876.79978	0.01
283.3855	66932.1998	0.01
283.322	66983.78186	0.01
283.263	67037.0204	0.01
283.2045	67129.48455	0.01
283.1405	67167.20824	0.01
283.072	67227.38571	0.01
283.012	67299.16976	0.01
282.949	67348.39425	0.01
282.8865	67417.10241	0.01
282.8245	67464.01504	0.01
282.758	67524.12625	0.01
282.7	67571.85153	0.01
282.6325	67651.74263	0.01
282.5685	67702.28043	0.01
282.5095	67749.52266	0.01
282.4385	67834.67901	0.01
282.375	67879.87971	0.01
282.3175	67938.22538	0.01
282.245	68000.61019	0.01
282.18	68065.34596	0.01
282.119	68132.66655	0.01
282.0535	68199.38658	0.01
281.9875	68242.90443	0.01
281.9265	68305.75563	0.01
281.8565	68391.28869	0.01
281.787	68440.67983	0.01
281.72	68508.75633	0.01
281.662	68559.8627	0.01
281.5935	68628.84949	0.01
281.524	68693.20003	0.01
281.452	68733.73136	0.01
281.3875	68792.39361	0.01
281.325	68901.38576	0.01
281.2505	68934.35014	0.01
281.185	69037.54675	0.01
281.118	69073.95074	0.01
281.0545	69127.11419	0.01
280.9835	69206.77736	0.01
280.916	69270.34785	0.01
280.8525	69317.39776	0.01
280.7845	69419.86929	0.01
280.714	69474.31675	0.01
280.6455	69535.26879	0.01
280.5745	69599.65398	0.01
280.507	69670.4437	0.01
280.4395	69730.00713	0.01
280.372	69838.97483	0.01
280.307	69888.08995	0.01
280.2365	69957.1647	0.01
280.161	70024.19716	0.01
280.0925	70122.11758	0.01
280.0335	70171.46216	0.01
279.9615	70243.95111	0.01
279.892	70304.84738	0.01
279.8245	70363.63214	0.01
279.7565	70447.39081	0.01
279.683	70538.71004	0.01
279.613	70590.83056	0.01
279.543	70654.09043	0.01
279.4765	70744.08734	0.01
279.408	70820.01451	0.01
279.328	70870.67815	0.01
279.2615	70969.65174	0.01
279.1955	70999.9944	0.01
279.127	71111.01756	0.01
279.0495	71170.02104	0.01
278.9845	71246.55991	0.01
278.9105	71336.88531	0.01
278.839	71407.46179	0.01
278.769	71455.68629	0.01
278.697	71783.36663	0.01
278.623	71668.65861	0.01
278.5525	71875.1978	0.01
278.4805	72224.49651	0.01
278.3915	72421.1432	0.01
278.3175	72464.39384	0.01
278.2415	72675.42275	0.01
278.165	72712.57514	0.01
278.079	72727.21925	0.01
278.0035	72875.78314	0.01
277.92	72920.34468	0.01
277.8445	73010.48343	0.01
277.762	73067.97603	0.01
277.6805	73125.42604	0.01
277.602	73268.1499	0.01
277.5265	73374.44475	0.01
277.446	73470.48633	0.01
277.3635	73525.53199	0.01
277.2815	73551.21059	0.01
277.198	73728.24693	0.01
277.1175	73806.47839	0.01
277.0375	73868.44276	0.01
276.9545	73996.01259	0.01
276.8785	74075.06475	0.01
276.7945	74090.00845	0.01
276.7085	74214.78369	0.01
276.63	74361.7602	0.01
276.549	74362.82665	0.01
276.466	74558.25839	0.01
276.3765	74580.96011	0.01
276.3035	74669.02548	0.01
276.2155	74796.93601	0.01
276.1325	74896.60106	0.01
276.052	74954.52695	0.01
275.9675	75066.55715	0.01
275.8925	75169.36924	0.01
275.808	75193.92186	0.01
275.7135	75302.37479	0.01
275.6365	75505.73856	0.01
275.55	75626.05666	0.01
275.474	75593.72286	0.01
275.38	75759.37439	0.01
275.2975	75842.19678	0.01
275.2115	75927.98006	0.01
275.1295	75987.02199	0.01
275.0485	76133.66024	0.01
274.9605	76176.49184	0.01
274.8815	76326.01619	0.01
274.7985	76432.23734	0.01
274.7195	76476.9253	0.01
274.639	76658.03213	0.01
274.5495	76769.21905	0.01
274.474	76773.33676	0.01
274.384	76912.96756	0.01
274.3005	77002.52994	0.01
274.2195	77063.93413	0.01
274.14	77111.01454	0.01
274.048	77284.99554	0.01
273.969	77368.50828	0.01
273.878	77565.24084	0.01
273.799	77539.32426	0.01
273.718	77774.91155	0.01
273.6255	77872.24859	0.01
273.548	77175.01358	0.01
273.467	77343.25198	0.01
273.3865	77363.14931	0.01
273.308	77389.94735	0.01
273.2295	77560.03021	0.01
273.156	77598.4923	0.01
273.07	77671.10448	0.01
272.9895	77807.64409	0.01
272.907	77904.7658	0.01
272.8245	77983.40826	0.01
272.75	78078.75404	0.01
                                                                                                                        Temperature (K)	Resistance (ohm)	Applied Current (mA)
258.2835	96812.18413	0.01
258.1845	96575.57035	0.01
258.087	96710.07414	0.01
257.937	101497.6934	0.01
257.7405	101863.3803	0.01
257.5855	101985.9813	0.01
257.475	102207.6128	0.01
257.3575	102253.3918	0.01
257.241	103068.8413	0.001
257.135	101602.3404	0.001
257.038	101747.0443	0.001
256.9305	99413.4274	0.001
256.833	101986.9064	0.001
256.719	103287.7786	0.001
256.618	103504.4191	0.001
256.5065	103664.8658	0.001
256.395	103784.8514	0.001
256.283	104010.853	0.001
256.171	104169.5646	0.001
256.0635	104365.6265	0.001
255.95	104554.8279	0.001
255.8395	104744.8098	0.001
255.729	104933.426	0.001
255.6165	105094.9066	0.001
255.5015	105297.4949	0.001
255.398	105454.1744	0.001
255.2775	105649.594	0.001
255.1715	105843.8628	0.001
255.053	106018.7088	0.001
254.9495	106222.9963	0.001
254.8395	106407.5474	0.001
254.7215	106625.994	0.001
254.609	106808.0754	0.001
254.499	106998.7083	0.001
254.3845	107213.7648	0.001
254.2685	107392.0199	0.001
254.1615	107611.7836	0.001
254.045	107799.9721	0.001
253.931	108004.3111	0.001
253.817	108440.4511	0.001
253.702	108644.1098	0.001
253.589	108838.8153	0.001
253.4785	109052.2379	0.001
253.3605	109245.0891	0.001
253.245	109456.227	0.001
253.13	109931.462	0.001
253.014	110139.0976	0.001
252.905	110672.5253	0.001
252.779	110909.2216	0.001
252.6615	111142.1075	0.001
252.535	111354.3011	0.001
252.425	111473.7034	0.001
252.3005	111775.0166	0.001
252.184	111932.0011	0.001
252.0655	112156.7548	0.001
251.945	112420.4	0.001
251.8265	112419.4441	0.001
251.705	112528.1578	0.001
251.5875	112910.6729	0.001
251.4615	113302.2846	0.001
251.349	113501.3633	0.001
251.22	113495.8793	0.001
251.1045	113772.0675	0.001
250.987	113951.7493	0.001
250.8715	114364.5624	0.001
250.744	114438.8384	0.001
250.6265	114800.1651	0.001
250.51	114867.8796	0.001
250.392	115144.042	0.001
250.27	115321.9729	0.001
250.1525	115620.0766	0.001
250.029	115879.7224	0.001
249.9065	116249.2741	0.001
249.7855	116317.7424	0.001
249.6575	116716.7885	0.001
249.5445	116900.1618	0.001
249.427	117076.9023	0.001
249.302	117399.6208	0.001
249.181	117576.8131	0.001
249.056	117910.9256	0.001
248.937	117973.9229	0.001
248.8125	118550.6383	0.001
248.6885	118548.815	0.001
248.565	112136.7795	0.001
248.4485	118960.633	0.001
248.318	119472.7775	0.001
248.2025	119452.5368	0.001
248.08	119941.0244	0.001
247.9585	119929.3093	0.001
247.8385	120332.4376	0.001
247.7125	120416.77	0.001
247.591	120785.9068	0.001
247.4635	121091.952	0.001
247.34	121297.2096	0.001
247.2235	121433.2858	0.001
247.1035	121901.6359	0.001
246.9845	121927.308	0.001
246.863	122276.741	0.001
246.7405	122411.3156	0.001
246.6165	122903.4415	0.001
246.4955	122990.038	0.001
246.3755	123605.4163	0.001
246.2535	123444.62	0.001
246.136	124022.7316	0.001
246.011	124312.9029	0.001
245.8895	124465.5195	0.001
245.7705	124439.1168	0.001
245.6415	125083.9603	0.001
245.527	124961.1375	0.001
245.404	125541.9079	0.001
245.2775	126315.048	0.001
245.1595	126578.7348	0.001
245.0325	126555.6485	0.001
244.9095	127353.4105	0.001
244.7885	127318.1509	0.001
244.67	127617.6384	0.001
244.544	127006.7611	0.001
244.433	127251.2834	0.001
244.3145	127504.5626	0.001
244.1925	127734.8584	0.001
244.0795	128006.5078	0.001
243.957	128223.8408	0.001
243.8405	128469.4659	0.001
243.7265	128758.6638	0.001
243.606	128964.9445	0.001
243.492	129279.9079	0.001
243.3745	129508.3478	0.001
243.2475	129778.9451	0.001
243.1215	130003.1004	0.001
243.0015	130323.0838	0.001
242.884	130542.818	0.001
242.7695	130812.6659	0.001
242.6425	131042.2526	0.001
242.5265	131253.8733	0.001
242.4105	131544.4064	0.001
242.289	133296.1556	0.001
242.1705	133603.4203	0.001
242.0455	133838.3654	0.001
241.922	134161.57	0.001
241.797	134495.7505	0.001
241.673	134765.3333	0.001
241.549	135022.0621	0.001
241.4255	135042.3549	0.001
241.305	135051.756	0.001
241.1855	135468.1208	0.001
241.0565	135390.9219	0.001
240.9365	135932.9834	0.001
240.808	136643.6824	0.001
240.6905	136225.2768	0.001
240.5635	136577.2738	0.001
240.443	137063.8444	0.001
240.321	137114.6359	0.001
240.194	137881.4665	0.001
240.076	137769.7633	0.001
239.9535	138141.243	0.001
239.8225	138677.3404	0.001
239.699	138886.9825	0.001
239.574	139032.5279	0.001
239.4445	139332.083	0.001
239.3265	139575.4606	0.001
239.197	140005.3428	0.001
239.0695	140170.2398	0.001
238.95	140800.0839	0.001
238.823	140770.9793	0.001
238.702	141176.2514	0.001
238.5715	141367.2708	0.001
238.4415	141983.9819	0.001
238.32	141975.729	0.001
238.1965	142404.8298	0.001
238.071	142540.3564	0.001
237.9415	143214.7508	0.001
237.8115	143168.5699	0.001
237.6825	143588.7233	0.001
237.562	143788.9564	0.001
237.4385	144469	0.001
237.3145	144411.1986	0.001
237.188	144812.0858	0.001
237.067	145023.6664	0.001
236.94	145773.9503	0.001
236.819	145601.7048	0.001
236.6925	146056.9629	0.001
236.567	146298.0728	0.001
236.446	147017.88	0.001
236.316	146949.7465	0.001
236.1915	147312.3585	0.001
236.073	147584.4074	0.001
235.9475	148269.1215	0.001
235.8215	148169.459	0.001
235.697	148674.099	0.001
235.572	148773.7725	0.001
235.446	149516.6131	0.001
235.316	149476.6654	0.001
235.192	149960.2171	0.001
235.0705	149979.488	0.001
234.9425	150841.6553	0.001
234.818	150535.1163	0.001
234.697	151107.4296	0.001
234.571	151363.739	0.001
234.442	152134.6301	0.001
234.3175	151985.3795	0.001
234.1915	152468.4795	0.001
234.0655	152554.4521	0.001
233.9435	153509.6763	0.001
233.8135	153328.368	0.001
233.688	153848.3044	0.001
233.5675	152351.7278	0.001
233.449	152595.773	0.001
233.324	152906.9806	0.001
233.2055	153179.0351	0.001
233.0875	153563.747	0.001
232.967	153820.2851	0.001
232.847	154207.1799	0.001
232.7275	154389.278	0.001
232.6035	154689.2719	0.001
232.487	154963.3516	0.001
232.3725	155236.9593	0.001
232.252	155539.6201	0.001
232.1375	155891.7325	0.001
232.018	156140.4358	0.001
231.8945	158699.0596	0.001
231.7745	158875.3063	0.001
231.6525	160405.9618	0.001
231.5235	161338.222	0.001
231.3975	159520.745	0.001
231.2735	161858.0475	0.001
231.1455	160648.7748	0.001
231.0255	160322.7681	0.001
230.903	161415.319	0.001
230.776	161165.7575	0.001
230.656	161627.0544	0.001
230.528	163171.758	0.001
230.402	162061.7463	0.001
230.269	165218.591	0.001
230.144	164628.8754	0.001
230.017	163943.6085	0.001
229.893	164206.2196	0.001
229.7655	164272.4601	0.001
229.647	164703.497	0.001
229.522	164782.001	0.001
229.4005	164542.3786	0.001
229.2715	165264.8933	0.001
229.143	168039.9884	0.001
229.0205	166465.855	0.001
228.887	166082.663	0.001
228.7645	166750.5991	0.001
228.643	167050.1083	0.001
228.52	168047.35	0.001
228.3905	169035.7378	0.001
228.266	168795.4474	0.001
228.141	168566.1393	0.001
228.0115	169410.6798	0.001
227.888	170436.6199	0.001
227.7625	169918.5064	0.001
227.634	169597.1559	0.001
227.5135	169756.3091	0.001
227.3845	170946.1941	0.001
227.265	171580.3378	0.001
227.139	172184.516	0.001
227.0155	172291.5839	0.001
226.8915	172305.8524	0.001
226.7725	172791.8246	0.001
226.6465	172096.4483	0.001
226.5255	172420.2081	0.001
226.402	173437.16	0.001
226.2735	176686.412	0.001
226.1475	174881.994	0.001
226.021	174134.2268	0.001
225.904	174572.3816	0.001
225.774	175201.1601	0.001
225.6505	176291.0161	0.001
225.531	177600.0358	0.001
225.4015	177220.2245	0.001
225.2765	179632.7501	0.001
225.147	177515.2944	0.001
225.021	177144.4104	0.001
224.9005	177544.0731	0.001
224.775	177972.2429	0.001
224.651	178139.6284	0.001
224.5245	180495.0629	0.001
224.4	176211.4061	0.001
224.2845	176663.3044	0.001
224.168	177009.8574	0.001
224.047	177290.3101	0.001
223.9245	177677.7471	0.001
223.809	177962.7019	0.001
223.6875	178366.723	0.001
223.572	178617.2836	0.001
223.45	178899.4014	0.001
223.331	179394.7898	0.001
223.2135	179658.0768	0.001
223.091	179850.0076	0.001
222.971	180153.2649	0.001
222.8545	180535.095	0.001
222.734	180898.9484	0.001
222.6135	181300.6924	0.001
222.5	181553.8894	0.001
222.3785	182099.3644	0.001
222.2625	182139.203	0.001
222.142	182531.0846	0.001
222.0195	189056.9905	0.001
221.8925	188461.3154	0.001
221.7715	189015.1269	0.001
221.647	189104.7661	0.001
221.5195	191950.5488	0.001
221.3975	189197.4865	0.001
221.27	190025.2393	0.001
221.1475	190481.5874	0.001
221.0225	191058.7129	0.001
220.8955	193650.8294	0.001
220.771	194114.993	0.001
220.6435	192041.3654	0.001
220.517	191858.9181	0.001
220.3905	193060.1008	0.001
220.2655	193401.6578	0.001
220.14	193326.605	0.001
220.017	195424.2893	0.001
219.889	194377.1568	0.001
219.76	194242.3953	0.001
219.6355	194975.173	0.001
219.516	195465.8619	0.001
219.386	195331.4008	0.001
219.265	196372.9268	0.001
219.1355	197170.6029	0.001
219.011	196361.1199	0.001
218.8875	197313.3131	0.001
218.763	197947.1585	0.001
218.6345	197563.8284	0.001
218.5125	198511.1365	0.001
218.3855	199393.1358	0.001
218.2595	198724.2905	0.001
218.1375	199845.7898	0.001
218.005	200443.7566	0.001
217.8815	200018.555	0.001
217.7575	202191.0318	0.001
217.6305	201935.6963	0.001
217.504	201140.2294	0.001
217.3845	202128.9334	0.001
217.26	202631.8903	0.001
217.1355	204317.4171	0.001
217.009	204915.3878	0.001
216.8925	203882.7083	0.001
216.7685	203568.1165	0.001
216.646	205228.1625	0.001
216.519	205360.7743	0.001
216.3945	206802.7788	0.001
216.272	207227.9799	0.001
216.1495	206504.757	0.001
216.0225	208150.0288	0.001
215.8995	207844.7776	0.001
215.7765	209617.5154	0.001
215.6475	209466.0935	0.001
215.527	211011.9573	0.001
215.4005	211156.1048	0.001
215.2755	209980.7074	0.001
215.149	209927.4684	0.001
215.0245	212432.0108	0.001
214.898	209395.7011	0.001
214.778	210297.0221	0.001
214.653	211868.5754	0.001
214.5255	210284.2071	0.001
214.4065	213447.2471	0.001
214.283	205065.9646	0.001
214.172	205510.1765	0.001
214.0505	205922.2455	0.001
213.929	206215.2774	0.001
213.8125	206676.6708	0.001
213.6945	206582.993	0.001
213.5765	206947.8833	0.001
213.459	207308.0101	0.001
213.3405	207896.9489	0.001
213.221	208336.0333	0.001
213.1025	208784.5238	0.001
212.9905	208989.3351	0.001
212.8705	209452.4723	0.001
212.752	209686.7925	0.001
212.6365	209974.0888	0.001
212.5125	210030.5508	0.001
212.401	210778.4324	0.001
212.282	210768.3548	0.001
212.1705	211249.9799	0.001
212.0535	211647.8429	0.001
211.9345	211714.6198	0.001
211.8225	212193.3806	0.001
211.705	212623.6659	0.001
211.5915	212866.5159	0.001
211.478	213544.467	0.001
211.3545	213754.997	0.001
211.243	214021.3744	0.001
211.128	214211.2705	0.001
211.013	214535.8459	0.001
210.895	215070.6568	0.001
210.7815	215142.5468	0.001
210.662	215821.9856	0.001
210.544	215925.2459	0.001
210.4305	216362.492	0.001
210.314	216660.9283	0.001
210.1975	216841.5498	0.001
210.0855	217321.3953	0.001
209.9655	217707.6021	0.001
209.85	217883.4261	0.001
209.734	218186.4089	0.001
209.617	218520.5823	0.001
209.5015	218807.111	0.001
209.3835	219387.4293	0.001
209.267	219695.5883	0.001
209.152	220045.5318	0.001
209.037	220377.3565	0.001
208.9155	220737.0751	0.001
208.8	221202.7124	0.001
208.686	221360.5253	0.001
208.5645	221693.7379	0.001
208.451	222283.1278	0.001
208.332	222198.0188	0.001
208.219	222992.6634	0.001
208.104	223127.3101	0.001
207.9805	223480.16	0.001
207.8665	223957.9673	0.001
207.7465	224147.879	0.001
207.6265	224566.0474	0.001
207.515	225160.1854	0.001
207.4	224979.6025	0.001
207.2815	225601.5693	0.001
207.166	225673.8264	0.001
207.0545	226187.1824	0.001
206.9425	226324.1626	0.001
206.8265	226853.9131	0.001
206.709	227201.191	0.001
206.594	227519.0783	0.001
206.4785	227821.687	0.001
206.3665	228163.5576	0.001
206.25	228454.5009	0.001
206.1395	228886.4653	0.001
206.0215	229232.9201	0.001
205.905	229469.1933	0.001
205.792	229711.043	0.001
205.6795	230188.6048	0.001
205.559	230543.5859	0.001
205.448	231028.0105	0.001
205.329	231185.2708	0.001
205.2115	231604.3579	0.001
205.0955	231958.2406	0.001
204.986	232207.2421	0.001
204.8705	232599.8739	0.001
204.7545	233460.8939	0.001
204.6415	233871.6218	0.001
204.523	233274.9426	0.001
204.407	234163.9774	0.001
204.294	234025.9599	0.001
204.174	234791.2095	0.001
204.059	234659.445	0.001
203.943	235049.153	0.001
203.8315	235317.1999	0.001
203.713	235877.7904	0.001
203.599	236314.3606	0.001
203.4815	236609.5809	0.001
203.366	237212.9558	0.001
203.252	237882.7341	0.001
203.1345	238014.1976	0.001
203.0165	237857.2946	0.001
202.9005	238273.0775	0.001
202.783	238808.3025	0.001
202.669	238778.3413	0.001
202.55	239207.7661	0.001
202.4385	239757.2735	0.001
202.325	240033.9721	0.001
202.2095	240131.9708	0.001
202.096	240774.4518	0.001
201.9815	240878.2081	0.001
201.8675	241302.3411	0.001
201.758	241365.488	0.001
201.6415	242014.1829	0.001
201.531	242151.9901	0.001
201.418	242942.7804	0.001
201.3045	243017.5269	0.001
201.1895	243133.8134	0.001
201.0745	243892.6948	0.001
200.963	244203.572	0.001
200.848	243908.5143	0.001
200.7335	244467.7873	0.001
200.6165	244796.8848	0.001
200.5055	244944.1788	0.001
200.3935	245467.115	0.001
200.277	245707.9869	0.001
200.1645	246010.7191	0.001
200.052	246318.3336	0.001
199.932	246852.9235	0.001
199.8205	247443.32	0.001
199.7065	247517.7686	0.001
199.596	247970.7488	0.001
199.4745	248148.4826	0.001
199.3625	248341.7951	0.001
199.251	248931.135	0.001
199.141	249225.6321	0.001
199.0225	249209.0619	0.001
198.9065	250024.927	0.001
198.791	249965.0549	0.001
198.676	250447.693	0.001
198.5635	250522.3709	0.001
198.449	250806.5916	0.001
198.333	251444.9939	0.001
198.22	251657.7679	0.001
198.1075	251765.3194	0.001
197.989	252246.1075	0.001
197.8765	252168.1623	0.001
197.7615	253310.3826	0.001
197.645	253204.5818	0.001
197.528	253502.987	0.001
197.4195	254086.315	0.001
197.3055	254270.8661	0.001
197.194	254319.135	0.001
197.082	254817.1329	0.001
196.968	254889.3229	0.001
196.857	255482.942	0.001
196.7465	255786.1	0.001
196.631	256441.5046	0.001
196.5195	256291.1249	0.001
196.4045	256680.5243	0.001
196.293	256908.6511	0.001
196.182	257208.6603	0.001
196.071	257299.2586	0.001
195.9585	257664.5149	0.001
195.8445	258039.8399	0.001
195.7335	258286.9191	0.001
195.62	259083.204	0.001
195.5075	259133.9748	0.001
195.393	259478.7425	0.001
195.2815	259612.0574	0.001
195.17	260529.9831	0.001
195.058	260637.5756	0.001
194.939	261069.3671	0.001
194.8275	260869.8289	0.001
194.7145	261145.2396	0.001
194.6045	261184.3863	0.001
194.491	262103.4119	0.001
194.3795	262747.1616	0.001
194.266	262575.4746	0.001
194.153	263037.7691	0.001
194.0365	262495.6446	0.001
193.927	263409.5893	0.001
193.8105	263910.9406	0.001
193.6965	263831.4795	0.001
193.5845	264436.6724	0.001
193.4715	265722.5631	0.001
193.358	264614.48	0.001
193.2415	264997.75	0.001
193.1315	265319.2594	0.001
193.0195	265728.8581	0.001
192.9025	266070.2421	0.001
192.7925	266856.292	0.001
192.6755	266593.1741	0.001
192.5655	266870.3435	0.001
192.4465	266777.4471	0.001
192.341	266804.581	0.001
192.231	267965.098	0.001
192.121	268341.2535	0.001
192.007	268326.1448	0.001
191.8965	268453.6911	0.001
191.785	268968.2323	0.001
191.675	269371.8544	0.001
191.5625	269229.667	0.001
191.4535	269384.2171	0.001
191.34	270190.0003	0.001
191.228	270791.744	0.001
191.1185	270995.5304	0.001
191.0065	271419.0808	0.001
190.895	270843.9455	0.001
190.785	272043.1314	0.001
190.6715	272237.3719	0.001
190.564	272455.0894	0.001
190.4495	272759.4794	0.001
190.3385	272658.9444	0.001
190.2245	273038.7428	0.001
190.117	273340.0436	0.001
190.004	273916.8684	0.001
189.8935	273887.2075	0.001
189.781	274181.1663	0.001
189.6665	274323.9443	0.001
189.5565	274873.8514	0.001
189.4425	274538.0501	0.001
189.3335	275306.4463	0.001
189.222	275754.7368	0.001
189.114	275697.1364	0.001
188.999	276072.6389	0.001
188.8875	276216.4281	0.001
188.7765	276702.056	0.001
188.661	277470.5756	0.001
188.5495	278176.2539	0.001
188.4365	277713.013	0.001
188.324	278080.9475	0.001
188.2125	278623.3521	0.001
188.1015	278288.6001	0.001
187.9895	278856.9111	0.001
187.874	278997.994	0.001
187.763	279245.9944	0.001
187.6535	279930.7346	0.001
187.5385	280157.207	0.001
187.428	280150.7819	0.001
187.318	280110.1718	0.001
187.2065	281244.2395	0.001
187.0985	281657.0368	0.001
186.9915	281480.3184	0.001
186.8795	281427.3005	0.001
186.7695	282315.5493	0.001
186.662	282217.6389	0.001
186.5515	282036.9205	0.001
186.441	282380.7579	0.001
186.331	283091.2986	0.001
186.219	284024.3475	0.001
186.109	283448.211	0.001
186.001	283236.0801	0.001
185.8925	284334.3985	0.001
185.784	283794.0908	0.001
185.671	284183.2543	0.001
185.5615	285037.3826	0.001
185.4505	285002.3783	0.001
185.34	284900.7704	0.001
185.2315	285815.9829	0.001
185.1195	286214.4035	0.001
185.005	286993.3253	0.001
184.899	286462.6729	0.001
184.79	286628.036	0.001
184.678	287646.5809	0.001
184.57	287446.116	0.001
184.4585	288749.9558	0.001
184.347	287888.3531	0.001
184.2375	288185.5928	0.001
184.127	289110.8113	0.001
184.015	288655.1904	0.001
183.902	289181.0578	0.001
183.792	288740.6784	0.001
183.6825	289601.9336	0.001
183.5745	289074.2968	0.001
183.4625	289723.9701	0.001
183.3525	290303.5015	0.001
183.2385	290468.663	0.001
183.1325	290522.1819	0.001
183.018	291295.362	0.001
182.907	291696.6196	0.001
182.797	291298.8406	0.001
182.687	291502.4428	0.001
182.573	292092.487	0.001
182.4625	292445.7994	0.001
182.3555	292981.4715	0.001
182.248	293487.4824	0.001
182.1395	292672.6153	0.001
182.032	292910.899	0.001
181.9225	293091.3614	0.001
181.815	293686.6773	0.001
181.707	294774.0803	0.001
181.5955	294918.9764	0.001
181.49	294332.253	0.001
181.38	294865.6081	0.001
181.2705	295675.1289	0.001
181.163	295442.9258	0.001
181.0515	295500.2138	0.001
180.946	295932.0485	0.001
180.8405	296069.742	0.001
180.7285	296487.9518	0.001
180.6205	296204.3494	0.001
180.509	296581.3336	0.001
180.4005	296807.8854	0.001
180.2935	297554.2676	0.001
180.1815	297474.9828	0.001
180.0735	297680.1603	0.001
179.964	297249.7056	0.001
179.858	297579.5653	0.001
179.7465	298958.2569	0.001
179.637	298695.3746	0.001
179.528	298744.5006	0.001
179.4195	299513.267	0.001
179.309	299594.3114	0.001
179.202	299423.614	0.001
179.0925	300009.467	0.001
178.984	300606.0163	0.001
178.8735	300559.8621	0.001
178.7625	300807.881	0.001
178.6535	300605.5794	0.001
178.5445	301162.5558	0.001
178.435	301252.5263	0.001
178.326	301796.9733	0.001
178.2135	302457.803	0.001
178.106	302759.4749	0.001
177.9965	302274.7743	0.001
177.8885	303472.8295	0.001
177.7765	303273.7449	0.001
177.6665	303176.0656	0.001
177.5575	302905.2059	0.001
177.4475	303030.7329	0.001
177.3415	303645.8571	0.001
177.237	304205.4258	0.001
177.125	304454.6478	0.001
177.0215	304038.2923	0.001
176.9145	305053.2923	0.001
176.8045	304740.3038	0.001
176.697	305095.2998	0.001
176.5905	304479.757	0.001
176.481	305633.2454	0.001
176.3755	305597.7374	0.001
176.2695	306107.7149	0.001
176.161	306943.7464	0.001
176.0545	306156.6016	0.001
175.9455	307038.7078	0.001
175.839	307148.9146	0.001
175.729	307019.1289	0.001
175.6225	307832.9759	0.001
175.516	308564.5889	0.001
175.4075	307622.5536	0.001
175.2985	308637.1546	0.001
175.193	308939.2184	0.001
175.0845	309639.1458	0.001
174.974	309073.2468	0.001
174.866	309147.35	0.001
174.7595	308898.6786	0.001
174.6505	310043.9516	0.001
174.5435	309805.1888	0.001
174.4365	309074.7933	0.001
174.33	310376.1708	0.001
174.2195	310061.6755	0.001
174.1115	310687.9639	0.001
174.003	311943.3551	0.001
173.897	310014.1724	0.001
173.7865	311755.694	0.001
173.678	311605.0536	0.001
173.568	312136.6544	0.001
173.4645	312165.4453	0.001
173.352	311809.7864	0.001
173.244	311759.6084	0.001
173.137	311945.1409	0.001
173.021	312147.1079	0.001
172.9145	312162.3501	0.001
172.809	313189.9791	0.001
172.7025	313323.0169	0.001
172.5955	312621.6764	0.001
172.4855	313531.0155	0.001
172.378	313814.4213	0.001
172.271	314056.845	0.001
172.1645	314514.1846	0.001
172.057	314873.646	0.001
171.949	314758.2163	0.001
171.8425	316289.1831	0.001
171.734	316016.1598	0.001
171.6265	316343.3484	0.001
171.518	316492.2167	0.001
171.413	316561.1272	0.001
171.3055	317319.4788	0.001
171.1965	317889.6833	0.001
171.0865	318054.1591	0.001
170.983	318676.7411	0.001
170.8715	319248.596	0.001
170.7655	319262.8907	0.001
170.654	319705.9363	0.001
170.5475	319982.753	0.001
170.4405	319927.1404	0.001
170.333	320531.1062	0.001
170.2245	320318.4453	0.001
170.1145	321580.2355	0.001
170.0065	321413.2887	0.001
169.8985	322690.414	0.001
169.7905	323107.9014	0.001
169.683	323091.1051	0.001
169.5735	322658.6499	0.001
169.467	324210.432	0.001
169.3565	323778.4648	0.001
169.247	323498.202	0.001
169.1405	323783.626	0.001
169.031	325944.5029	0.001
168.922	325235.0558	0.001
168.812	326088.7441	0.001
168.704	325422.1808	0.001
168.596	326554.7549	0.001
168.488	326601.0188	0.001
168.38	326764.0808	0.001
168.2735	326853.6623	0.001
168.168	327841.0762	0.001
168.0595	327941.0386	0.001
167.9545	328963.616	0.001
167.848	328954.1581	0.001
167.7425	328835.1498	0.001
167.632	330175.1479	0.001
167.53	329593.2792	0.001
167.4215	331603.4241	0.001
167.313	329980.2424	0.001
167.2075	330901.2406	0.001
167.1005	331629.1691	0.001
166.9935	332112.7721	0.001
166.8875	331889.8609	0.001
166.7795	332464.3348	0.001
166.672	342552.6686	0.001
166.5625	343226.7998	0.001
166.4585	343866.0466	0.001
166.349	344353.0236	0.001
166.2435	343621.8855	0.001
166.135	343797.1884	0.001
166.028	345513.2266	0.001
165.92	344887.3656	0.001
165.813	344509.4056	0.001
165.7065	346176.1598	0.001
165.6005	322264.5531	0.001
165.4925	346355.853	0.001
165.385	346117.6495	0.001
165.275	322505.7852	0.001
165.168	323414.0172	0.001
165.0605	322477.7432	0.001
164.953	322701.5171	0.001
164.844	323783.4979	0.001
164.7345	324663.6193	0.001
164.6275	323686.269	0.001
164.5185	323508.101	0.001
164.409	327235.0995	0.001
164.3005	325354.8035	0.001
164.189	324853.3902	0.001
164.0835	325468.7405	0.001
163.9745	326235.4593	0.001
163.867	327459.1291	0.001
163.7625	325591.3641	0.001
163.654	326767.6556	0.001
163.5505	326907.7874	0.001
163.444	326693.6445	0.001
163.337	327511.7776	0.001
163.2305	328361.5196	0.001
163.1225	327396.0724	0.001
163.0145	327606.5042	0.001
162.91	327874.03	0.001
162.8065	328676.0582	0.001
162.6975	329104.8284	0.001
162.5905	328554.0924	0.001
162.4845	328981.2742	0.001
162.376	328659.7222	0.001
162.2695	329691.3009	0.001
162.1615	331873.683	0.001
162.056	330435.4905	0.001
161.948	330186.3185	0.001
161.8405	360028.4338	0.001
161.7325	360703.3184	0.001
161.6235	360711.5813	0.001
161.515	361926.2618	0.001
161.406	361216.9104	0.001
161.297	362770.3575	0.001
161.189	362203.5864	0.001
161.0825	332559.0903	0.001
160.9755	362365.3517	0.001
160.868	363945.4961	0.001
160.761	333951.4814	0.001
160.6565	333417.3944	0.001
160.549	332996.125	0.001
160.445	334068.1209	0.001
160.3385	335555.9211	0.001
160.2355	334554.9618	0.001
160.1295	333852.2579	0.001
160.025	333262.3841	0.001
159.9155	334624.2803	0.001
159.81	334254.2921	0.001
159.7055	334913.7361	0.001
159.599	335408.8841	0.001
159.4955	335757.7465	0.001
159.39	336469.4781	0.001
159.287	334544.5045	0.001
159.1855	335915.001	0.001
159.0815	334586.6815	0.001
158.9775	336465.8279	0.001
158.876	335733.1914	0.001
158.771	336785.5883	0.001
158.6715	336759.259	0.001
158.565	336695.5276	0.001
158.462	335615.0748	0.001
158.36	337128.0524	0.001
158.255	337325.3421	0.001
158.151	337066.7543	0.001
158.047	336197.7643	0.001
157.9445	337041.3058	0.001
157.8395	336636.5278	0.001
157.735	337348.3863	0.001
157.63	337514.2395	0.001
157.528	337844.3935	0.001
157.4215	337394.5923	0.001
157.3185	336369.0195	0.001
157.214	337121.7379	0.001
157.112	337835.6678	0.001
157.007	338113.2369	0.001
156.9025	339022.4013	0.001
156.7985	338103.7703	0.001
156.693	338887.113	0.001
156.5875	338976.6784	0.001
156.484	338364.1443	0.001
156.382	339405.0004	0.001
156.2755	338746.6398	0.001
156.17	338107.6519	0.001
156.066	339282.7139	0.001
155.9595	339918.9168	0.001
155.8535	339966.9363	0.001
155.7465	339162.3733	0.001
155.641	340945.0895	0.001
155.534	340823.1259	0.001
155.4255	340635.6897	0.001
155.3205	341380.637	0.001
155.211	342580.6297	0.001
155.104	342161.2363	0.001
154.997	342924.2427	0.001
154.893	343780.3085	0.001
154.7905	344703.6646	0.001
154.6845	343983.4076	0.001
154.5805	345466.4924	0.001
154.476	345161.7441	0.001
154.369	344937.4904	0.001
154.265	346975.2642	0.001
154.162	347112.6924	0.001
154.0565	275820.2148	0.001
153.9505	287686.793	0.001
153.844	275191.6835	0.001
153.7385	288580.1004	0.001
153.6325	289153.5795	0.001
153.5285	276222.9736	0.001
153.4225	299066.2809	0.001
153.317	288707.875	0.001
153.2115	299412.2061	0.001
153.105	298285.2489	0.001
152.9975	288977.4265	0.001
152.891	300078.0439	0.001
152.7845	300123.8039	0.001
152.6785	298855.6818	0.001
152.5735	298865.0436	0.001
152.4685	299117.9249	0.001
152.36	300806.3485	0.001
152.256	300003.4979	0.001
152.1475	299447.0954	0.001
152.0415	299012.0193	0.001
151.933	299407.1076	0.001
151.827	299600.4073	0.001
151.722	299810.86	0.001
151.615	299346.2289	0.001
151.5085	276784.0679	0.001
151.4015	299211.7199	0.001
151.2955	276414.4254	0.001
151.189	276646.5503	0.001
151.0825	276091.0158	0.001
150.978	275385.2235	0.001
150.868	276593.9545	0.001
150.764	300045.5689	0.001
150.654	277340.3538	0.001
150.5485	276320.2806	0.001
150.4435	276818.0557	0.001
150.3395	276260.2268	0.001
150.2345	276183.8493	0.001
150.1315	275747.4545	0.001
150.0275	276734.5816	0.001
149.923	276325.1718	0.001
149.82	275817.8045	0.001
149.7145	275834.5837	0.001
149.6105	277320.6198	0.001
149.5055	276348.7032	0.001
149.401	276525.2272	0.001
149.298	276728.9706	0.001
149.1955	277455.9344	0.001
149.0925	277763.4044	0.001
148.987	276910.5324	0.001
148.8815	276641.8059	0.001
148.778	276782.3321	0.001
148.673	277726.853	0.001
148.5685	277587.1749	0.001
148.467	276737.5806	0.001
148.3605	276930.4133	0.001
148.254	277256.558	0.001
148.1525	277160.174	0.001
148.0455	276900.3469	0.001
147.9425	276697.054	0.001
147.8375	277213.7146	0.001
147.7325	277074.2839	0.001
147.6295	278308.9302	0.001
147.5235	277000.9347	0.001
147.4175	277001.3677	0.001
147.3135	276890.898	0.001
147.208	276720.8736	0.001
147.103	276930.8773	0.001
146.997	277378.9635	0.001
146.894	277082.2399	0.001
146.7895	277491.5666	0.001
146.683	277085.1587	0.001
146.5795	277084.7929	0.001
146.472	278000.8514	0.001
146.3665	277827.3419	0.001
146.2605	277086.5999	0.001
146.155	277446.3332	0.001
146.051	278656.787	0.001
145.9455	276524.8941	0.001
145.843	277024.0643	0.001
145.7415	277202.7523	0.001
145.637	276979.8744	0.001
145.5335	276852.6205	0.001
145.4295	277672.0629	0.001
145.3275	276453.506	0.001
145.2255	280754.1266	0.001
145.1225	277952.3576	0.001
145.018	277689.2073	0.001
144.916	276888.3018	0.001
144.811	277539.3093	0.001
144.7095	276583.9914	0.001
144.604	278164.3105	0.001
144.5005	277393.223	0.001
144.398	277856.1571	0.001
144.2935	277430.1889	0.001
144.1895	309960.0773	0.001
144.0855	309226.1875	0.001
143.9795	309710.613	0.001
143.8735	308035.2291	0.001
143.772	278337.3411	0.001
143.666	309610.4594	0.001
143.562	277640.7744	0.001
143.457	309758.4633	0.001
143.349	309964.8315	0.001
143.2445	308565.3478	0.001
143.1395	307952.8898	0.001
143.036	311365.2899	0.001
142.93	309377.7178	0.001
142.823	309720.2018	0.001
142.7165	309006.4461	0.001
142.613	309878.7686	0.001
142.508	283497.2724	0.001
142.403	308906.289	0.001
142.296	308994.7659	0.001
142.1915	310611.9646	0.001
142.0855	283881.7878	0.001
141.9795	283919.0518	0.001
141.8745	283855.5292	0.001
141.771	284515.4378	0.001
141.666	283332.7486	0.001
141.559	310461.1828	0.001
141.4555	310528.7721	0.001
141.3505	285185.1659	0.001
141.249	285711.4078	0.001
141.147	284313.3107	0.001
141.0445	284770.6302	0.001
140.941	285401.1795	0.001
140.838	284950.8933	0.001
140.737	284947.5673	0.001
140.633	286759.4738	0.001
140.529	284590.4912	0.001
140.4265	285479.0855	0.001
140.326	285513.4602	0.001
140.221	286121.3331	0.001
140.1185	285461.4726	0.001
140.0155	286001.4204	0.001
139.912	285852.6701	0.001
139.8085	285876.5542	0.001
139.705	287263.4296	0.001
139.602	285808.4453	0.001
139.4985	286672.388	0.001
139.3945	287270.4721	0.001
139.291	285793.187	0.001
139.187	286600.5433	0.001
139.0835	287166.9327	0.001
138.9825	287121.9099	0.001
138.8775	287736.7678	0.001
138.7715	288028.3311	0.001
138.6685	287564.4883	0.001
138.563	287824.649	0.001
138.4605	287819.1564	0.001
138.3575	288248.6559	0.001
138.2515	288960.388	0.001
138.15	287595.1976	0.001
138.046	287413.3909	0.001
137.9405	287137.9088	0.001
137.836	288013.8601	0.001
137.7305	287898.2764	0.001
137.6265	289436.839	0.001
137.523	287869.1012	0.001
137.4185	288560.6365	0.001
137.313	288523.1974	0.001
137.208	289263.693	0.001
137.105	288701.7824	0.001
137.001	289171.9333	0.001
136.897	288372.5281	0.001
136.795	289059.7211	0.001
136.6925	289177.0625	0.001
136.591	290680.2787	0.001
136.489	288976.106	0.001
136.3875	289925.2881	0.001
136.2835	289703.8978	0.001
136.181	289518.2487	0.001
136.0795	289338.9272	0.001
135.978	289764.3029	0.001
135.875	289770.1079	0.001
135.7735	291127.9276	0.001
135.672	290795.042	0.001
135.568	290481.106	0.001
135.464	305969.8996	0.001
135.362	289789.7049	0.001
135.259	303999.2124	0.001
135.157	292107.7043	0.001
135.053	306151.678	0.001
134.951	304828.7526	0.001
134.85	304370.3024	0.001
134.746	304118.2498	0.001
134.642	306378.9879	0.001
134.5395	304754.9388	0.001
134.438	303749.3293	0.001
134.3325	304781.775	0.001
134.229	304971.0868	0.001
134.125	304263.3388	0.001
134.023	303757.0989	0.001
133.921	304241.2893	0.001
133.815	289038.4086	0.001
133.7145	295440.7588	0.001
133.61	289508.9495	0.001
133.507	295293.8863	0.001
133.404	290240.6131	0.001
133.3015	295124.9796	0.001
133.1965	289464.2272	0.001
133.0935	294122.4776	0.001
132.9915	289317.7384	0.001
132.89	295097.6253	0.001
132.789	289646.0217	0.001
132.689	295101.8968	0.001
132.588	289494.5869	0.001
132.4875	294695.7346	0.001
132.3855	288800.1106	0.001
132.285	294755.3045	0.001
132.1845	289711.43	0.001
132.083	293892.9629	0.001
131.9815	289654.7424	0.001
131.881	280682.1592	0.001
131.78	279737.2439	0.001
131.679	279293.2573	0.001
131.578	294256.7148	0.001
131.4765	289523.6532	0.001
131.376	280610.5122	0.001
131.275	279596.8427	0.001
131.175	280571.5051	0.001
131.0735	279561.8449	0.001
130.973	280353.4737	0.001
130.8695	279784.0263	0.001
130.7715	279915.2995	0.001
130.668	279761.2337	0.001
130.567	278241.8814	0.001
130.464	279585.021	0.001
130.3625	279698.3203	0.001
130.2625	279044.8182	0.001
130.1605	279853.0176	0.001
130.059	280962.2072	0.001
129.957	278811.6395	0.001
129.856	279770.6209	0.001
129.7535	279636.8436	0.001
129.651	279418.9572	0.001
129.5505	279400.179	0.001
129.4485	279166.7286	0.001
129.347	278395.1378	0.001
129.245	279732.3157	0.001
129.141	277636.46	0.001
129.0385	278393.9959	0.001
128.939	278531.8549	0.001
128.84	279358.1877	0.001
128.739	278591.1495	0.001
128.6385	278751.8577	0.001
128.541	277301.5067	0.001
128.4395	277773.3911	0.001
128.3395	277854.8884	0.001
128.242	279176.542	0.001
128.141	278016.6288	0.001
128.0405	277894.4414	0.001
127.94	277706.8654	0.001
127.8395	279000.5187	0.001
127.74	278935.5409	0.001
127.6395	278033.3387	0.001
127.5395	277067.0305	0.001
127.4395	277887.9781	0.001
127.3385	278468.5624	0.001
127.238	277271.2701	0.001
127.139	277474.8996	0.001
127.0365	278252.0209	0.001
126.9375	276727.6864	0.001
126.8355	278150.3983	0.001
126.735	276751.0734	0.001
126.6355	277477.9217	0.001
126.5335	278171.2769	0.001
126.433	277400.4602	0.001
126.3325	277651.9183	0.001
126.23	276171.0572	0.001
126.129	277736.9539	0.001
126.028	276855.0103	0.001
125.9265	277268.2759	0.001
125.825	278503.758	0.001
125.7245	278507.2251	0.001
125.6235	277896.431	0.001
125.521	277634.2809	0.001
125.42	277768.1876	0.001
125.3175	276214.9887	0.001
125.216	275924.0285	0.001
125.114	275787.1147	0.001
125.0115	276663.013	0.001
124.914	275964.6973	0.001
124.8145	276676.7688	0.001
124.7155	276775.4948	0.001
124.616	275263.1681	0.001
124.517	275742.2592	0.001
124.417	278159.9814	0.001
124.3185	276689.5814	0.001
124.2195	275359.2188	0.001
124.1205	275763.9985	0.001
124.019	278596.888	0.001
123.9195	275898.9891	0.001
123.819	301099.8129	0.001
123.718	274686.8793	0.001
123.6215	273584.0525	0.001
123.5195	275310.471	0.001
123.4205	275618.717	0.001
123.32	274747.4255	0.001
123.2205	275269.1083	0.001
123.1205	274158.2336	0.001
123.019	274095.7174	0.001
122.9215	273526.4426	0.001
122.8195	274869.0275	0.001
122.7195	273784.5558	0.001
122.619	274056.6231	0.001
122.518	274503.0823	0.001
122.417	273025.6996	0.001
122.317	273751.8401	0.001
122.216	274420.0941	0.001
122.117	273567.2906	0.001
122.015	274161.0878	0.001
121.913	273411.5889	0.001
121.813	272441.5694	0.001
121.712	274274.753	0.001
121.6125	272539.3628	0.001
121.5105	273974.9373	0.001
121.409	274266.5204	0.001
121.3085	272080.433	0.001
121.2065	274077.1543	0.001
121.1045	273650.0508	0.001
121.004	273861.8883	0.001
120.9045	272801.8025	0.001
120.8075	272698.0573	0.001
120.708	272552.5746	0.001
120.6095	272051.6545	0.001
120.512	273243.5199	0.001
120.4125	271788.9096	0.001
120.314	273167.8903	0.001
120.215	272584.5783	0.001
120.115	271517.9218	0.001
120.0175	273181.4666	0.001
119.9165	273375.4895	0.001
119.818	271264.105	0.001
119.7195	272820.9009	0.001
119.6205	273546.4561	0.001
119.5215	272494.4531	0.001
119.4195	271652.876	0.001
119.321	271326.9505	0.001
119.2225	272512.3331	0.001
119.1225	272140.8634	0.001
119.023	271566.72	0.001
118.9245	271405.2736	0.001
118.8225	271712.4628	0.001
118.7245	271984.35	0.001
118.6235	271314.8625	0.001
118.523	271829.2483	0.001
118.422	271714.0954	0.001
118.324	271436.2799	0.001
118.222	270281.6035	0.001
118.1225	271808.7989	0.001
118.0235	270042.105	0.001
117.9225	270697.991	0.001
117.8225	272581.9155	0.001
117.7215	271118.346	0.001
117.6215	270554.6088	0.001
117.518	272383.9551	0.001
117.418	271093.5214	0.001
117.3185	271508.1655	0.001
117.2175	270837.0119	0.001
117.117	271816.0081	0.001
117.017	271361.1804	0.001
116.9175	269866.5605	0.001
116.8195	271215.9924	0.001
116.7215	271419.4534	0.001
116.6235	270218.1936	0.001
116.5255	271084.3065	0.001
116.427	269229.1365	0.001
116.328	270956.6799	0.001
116.229	270978.0226	0.001
116.131	270109.3364	0.001
116.032	270254.7004	0.001
115.934	270030.9774	0.001
115.8355	270227.0669	0.001
115.736	269291.3239	0.001
115.637	269610.2913	0.001
115.5385	269930.1245	0.001
115.44	268999.7786	0.001
115.3405	270294.0199	0.001
115.2405	269085.7819	0.001
115.1415	270019.0246	0.001
115.042	270275.622	0.001
114.9445	269864.6121	0.001
114.8435	269350.0776	0.001
114.745	269809.5574	0.001
114.644	268984.0989	0.001
114.545	269188.083	0.001
114.4455	268946.3545	0.001
114.3465	269955.7134	0.001
114.2455	268920.5615	0.001
114.146	268140.1903	0.001
114.046	269054.1289	0.001
113.946	268086.4978	0.001
113.8465	269032.208	0.001
113.747	268757.8209	0.001
113.6455	269007.4721	0.001
113.546	267930.2219	0.001
113.4455	269436.2289	0.001
113.345	268222.6003	0.001
113.2445	267985.252	0.001
113.144	267852.838	0.001
113.043	268111.3061	0.001
112.9435	268941.5211	0.001
112.846	269806.599	0.001
112.748	267161.381	0.001
112.651	269724.7351	0.001
112.5535	267690.2393	0.001
112.4545	267843.2526	0.001
112.356	269358.9249	0.001
112.259	268789.1785	0.001
112.1605	268723.6979	0.001
112.063	267097.6768	0.001
111.964	268754.7863	0.001
111.866	267985.4176	0.001
111.7675	267871.4063	0.001
111.669	267185.4069	0.001
111.57	267636.3096	0.001
111.471	267363.8833	0.001
111.3725	267419.8335	0.001
111.274	267461.1785	0.001
111.175	266715.3484	0.001
111.076	266732.4806	0.001
110.9775	266581.032	0.001
110.8775	267650.395	0.001
110.779	265982.7989	0.001
110.6795	266258.7299	0.001
110.58	267966.9901	0.001
110.481	267626.3383	0.001
110.3815	266534.715	0.001
110.281	266461.5874	0.001
110.181	266179.1065	0.001
110.083	266156.2589	0.001
109.983	266372.4581	0.001
109.882	266097.2026	0.001
109.7815	265873.4805	0.001
109.682	266174.941	0.001
109.582	267002.4451	0.001
109.483	266039.5729	0.001
109.381	265019.7004	0.001
109.281	266110.7508	0.001
109.181	266784.4533	0.001
109.0805	265738.6196	0.001
108.98	266455.4663	0.001
108.883	265428.253	0.001
108.786	266146.7481	0.001
108.6885	265920.5175	0.001
108.5915	265792.6098	0.001
108.4925	266045.3549	0.001
108.3955	265391.5055	0.001
108.298	264867.0724	0.001
108.1985	265075.9186	0.001
108.102	265310.1445	0.001
108.0035	265508.1554	0.001
107.905	266108.812	0.001
107.8075	264983.6543	0.001
107.7085	264958.0541	0.001
107.611	265289.7599	0.001
107.512	264105.4904	0.001
107.4135	264179.7409	0.001
107.3145	265753.1605	0.001
107.217	265407.8206	0.001
107.1175	263585.4348	0.001
107.019	264943.3236	0.001
106.92	265055.4875	0.001
106.8205	264091.7898	0.001
106.7215	264629.7606	0.001
106.623	264761.1569	0.001
106.524	264441.6708	0.001
106.4235	264129.6038	0.001
106.324	264849.9723	0.001
106.2245	264364.5739	0.001
106.1255	264373.8255	0.001
106.0265	264811.62	0.001
105.926	263917.2668	0.001
105.8265	263550.6133	0.001
105.727	263958.1584	0.001
105.627	263893.4153	0.001
105.5255	265139.5074	0.001
105.426	264470.8308	0.001
105.325	263953.7678	0.001
105.226	264267.426	0.001
105.1245	263455.1979	0.001
105.024	262966.4531	0.001
104.926	263412.4178	0.001
104.8285	262950.4943	0.001
104.731	261999.9789	0.001
104.6335	262584.621	0.001
104.537	263011.041	0.001
104.438	262800.0361	0.001
104.341	263164.3643	0.001
104.242	262970.5769	0.001
104.144	263293.8724	0.001
104.047	263670.8755	0.001
103.948	262999.9809	0.001
103.85	263065.8919	0.001
103.751	263626.0655	0.001
103.6535	262592.167	0.001
103.5545	262515.0451	0.001
103.456	262091.147	0.001
103.357	262435.4108	0.001
103.258	262655.7289	0.001
103.159	263469.1035	0.001
103.0595	262918.1349	0.001
102.9615	262202.5675	0.001
102.8635	263132.4794	0.001
102.763	261612.6589	0.001
102.6645	261948.2931	0.001
102.5635	261459.07	0.001
102.4645	261648.9416	0.001
102.365	262209.4995	0.001
102.2645	262359.7875	0.001
102.165	261183.3215	0.001
102.066	261489.6823	0.001
101.965	262116.7828	0.001
101.8655	260847.743	0.001
101.766	261739.1649	0.001
101.666	262053.6618	0.001
101.5645	262056.3099	0.001
101.466	261105.9259	0.001
101.368	261524.2069	0.001
101.27	261196.9226	0.001
101.1715	262829.7955	0.001
101.0725	262495.837	0.001
100.975	260602.8891	0.001
100.8775	261065.2025	0.001
100.7785	261405.7066	0.001
100.6805	261142.4201	0.001
100.5815	260913.572	0.001
100.4835	259878.5684	0.001
100.385	261587.1479	0.001
100.2865	259882.9171	0.001
100.1875	259382.1656	0.001
100.0875	261122.3304	0.001
99.9894	260709.101	0.001
99.89025	262312.2136	0.001
99.79095	260152.3574	0.001
99.6913	261572.0136	0.001
99.59145	260942.8129	0.001
99.4914	260584.9568	0.001
99.39305	260136.2714	0.001
99.2931	260069.1859	0.001
99.19305	260816.3706	0.001
99.09335	261272.6966	0.001
98.9932	260132.3191	0.001
98.8964	259988.8594	0.001
98.7976	260482.6181	0.001
98.698	258784.0376	0.001
98.6002	258832.9001	0.001
98.5019	260520.8199	0.001
98.4043	259767.7241	0.001
98.3052	259655.9898	0.001
98.2066	260367.1361	0.001
98.1072	259381.8104	0.001
98.00905	259512.9348	0.001
97.91045	259986.0471	0.001
97.8106	258714.4533	0.001
97.7114	259418.7704	0.001
97.61165	260343.268	0.001
97.51155	258498.2901	0.001
97.41185	258926.9364	0.001
97.3123	258666.383	0.001
97.21325	260108.5633	0.001
97.11325	259561.9733	0.001
97.01305	259136.5256	0.001
96.9128	259178.8206	0.001
96.8131	258726.9253	0.001
96.71335	259508.3803	0.001
96.6123	258134.6194	0.001
96.5124	259229.3713	0.001
96.4135	259433.0946	0.001
96.31405	258465.8489	0.001
96.2164	258164.2318	0.001
96.1183	258547.1838	0.001
96.01875	259466.1694	0.001
95.91995	258319.6993	0.001
95.82215	257965.6678	0.001
95.72225	258924.644	0.001
95.6231	257479.0598	0.001
95.52405	258178.4863	0.001
95.4252	258269.3721	0.001
95.3258	257547.5663	0.001
95.225	258839.3514	0.001
95.12625	257746.9016	0.001
95.0261	258569.352	0.001
94.9268	257873.8613	0.001
94.82705	258102.0915	0.001
94.72635	258350.1788	0.001
94.6259	257524.0088	0.001
94.52675	258663.5829	0.001
94.42545	259206.7626	0.001
94.3256	258355.5576	0.001
94.2241	258282.73	0.001
94.12385	257176.3201	0.001
94.02305	257976.8629	0.001
93.9231	256428.5175	0.001
93.8249	257717.0509	0.001
93.726	257844.8436	0.001
93.62695	257662.162	0.001
93.52845	257437.6136	0.001
93.42935	256380.4336	0.001
93.32965	257443.3114	0.001
93.23065	256949.0913	0.001
93.13185	257635.9709	0.001
93.03135	256199.6793	0.001
92.9318	257353.7519	0.001
92.83255	257153.9095	0.001
92.73235	258128.3116	0.001
92.63265	256050.4925	0.001
92.5314	256177.5531	0.001
92.43095	256684.9768	0.001
92.3314	256700.1243	0.001
92.2301	257578.5879	0.001
92.12985	258702.2461	0.001
92.02845	257135.5546	0.001
91.9278	256397.2894	0.001
91.82725	256751.7828	0.001
91.72615	256572.2345	0.001
91.6247	257697.7401	0.001
91.52305	256326.3305	0.001
91.42345	256337.7168	0.001
91.32455	257480.3418	0.001
91.23115	255771.2508	0.001
91.1298	256832.6011	0.001
91.0318	256471.2791	0.001
90.93375	255842.2851	0.001
90.83335	257061.9738	0.001
90.73235	256068.9633	0.001
90.63225	256195.6999	0.001
90.5326	256578.1265	0.001
90.43315	255212.6986	0.001
90.33025	256781.086	0.001
90.23385	256486.4104	0.001
90.1301	255786.239	0.001
90.0291	256268.7873	0.001
89.93155	255882.873	0.001
89.8276	257672.6051	0.001
89.7278	256189.8646	0.001
89.6258	255285.0311	0.001
89.5227	256338.456	0.001
89.42165	256252.4935	0.001
89.32005	255658.7546	0.001
89.22085	255504.6983	0.001
89.1171	254865.2593	0.001
89.0147	255397.7196	0.001
88.9159	254746.9813	0.001
88.8165	256450.6455	0.001
88.71495	255217.8999	0.001
88.61615	255514.6384	0.001
88.5152	255125.5506	0.001
88.41475	255640.9936	0.001
88.3134	255260.6591	0.001
88.2156	254970.7133	0.001
88.11315	254779.3278	0.001
88.0137	254251.7755	0.001
87.91215	254588.7975	0.001
87.8108	254462.7393	0.001
87.70865	255768.8095	0.001
87.60925	254590.535	0.001
87.50355	255485.6564	0.001
87.4026	254784.4941	0.001
87.29995	254291.342	0.001
87.1978	254087.9951	0.001
87.09765	255257.5426	0.001
86.9964	253896.7736	0.001
86.8907	254867.8576	0.001
86.7928	254716.1401	0.001
86.68855	255200.9934	0.001
86.5833	255489.8465	0.001
86.48225	254397.755	0.001
86.38045	255377.4804	0.001
86.2806	256943.9088	0.001
86.17835	255357.2239	0.001
86.08055	254712.9215	0.001
85.97765	254184.9959	0.001
85.87715	254363.5623	0.001
85.7751	255595.6513	0.001
85.67085	254577.9113	0.001
85.57285	254224.392	0.001
85.46965	253934.0568	0.001
85.3686	253795.7288	0.001
85.26635	254151.2535	0.001
85.1638	254393.6124	0.001
85.06	254162.6991	0.001
84.9599	254034.6803	0.001
84.854	254659.6728	0.001
84.7551	254575.9041	0.001
84.64965	254150.0759	0.001
84.5482	254177.7454	0.001
84.44415	255095.0724	0.001
84.3398	253555.5388	0.001
84.23615	252855.633	0.001
84.13315	254064.5058	0.001
84.0286	255072.6518	0.001
83.927	254552.5853	0.001
83.827	253701.821	0.001
83.72325	254536.635	0.001
83.6207	254188.3401	0.001
83.5209	253478.9854	0.001
83.4173	253827.9533	0.001
83.31405	253877.5691	0.001
83.2114	253356.0923	0.001
83.10945	253716.4728	0.001
83.0076	253412.0781	0.001
82.90535	252650.8085	0.001
82.8012	253447.2911	0.001
82.69775	254164.0904	0.001
82.5937	252551.8938	0.001
82.49175	253339.7561	0.001
82.3862	253110.4394	0.001
82.2834	252334.6215	0.001
82.1768	253652.445	0.001
82.07485	254072.3195	0.001
81.97355	252598.8909	0.001
81.8679	251300.8019	0.001
81.7606	251773.5628	0.001
81.65555	253848.949	0.001
81.55095	252013.2048	0.001
81.44555	253077.7899	0.001
81.3444	253624.3864	0.001
81.2405	253966.314	0.001
81.1388	253902.8619	0.001
81.03505	254014.0221	0.001
80.9306	253042.4088	0.001
80.8281	254238.535	0.001
80.7245	252193.5398	0.001
80.6208	253548.5999	0.001
80.5162	251839.4294	0.001
80.41195	252641.4663	0.001
80.3057	252044.3779	0.001
80.2027	252933.6678	0.001
80.0951	252471.9676	0.001
79.99125	252663.2305	0.001
79.8864	252044.0064	0.001
79.7821	252777.6105	0.001
79.6743	253310.416	0.001
79.57025	252355.319	0.001
79.46485	251936.266	0.001
79.35725	253062.2696	0.001
79.2513	252362.778	0.001
79.14535	252863.7344	0.001
79.0381	253172.536	0.001
78.9335	252669.0071	0.001
78.8287	252668.3438	0.001
78.72405	251875.4203	0.001
78.6191	251621.6268	0.001
78.5148	252057.3851	0.001
78.4096	254165.7735	0.001
78.3046	252008.3526	0.001
78.20145	252261.345	0.001
78.09435	252963.8289	0.001
77.98825	252415.8764	0.001
77.88245	252859.4829	0.001
77.7756	251680.6376	0.001
77.6687	252323.7121	0.001
77.5629	252131.6949	0.001
77.4566	251622.259	0.001
77.3492	252141.0328	0.001
77.24155	252869.1483	0.001
77.1344	251732.6691	0.001
77.02575	253243.1596	0.001
76.91885	251791.0795	0.001
76.81065	252008.7191	0.001
76.70145	252490.0564	0.001
76.59255	252285.9685	0.001
76.4847	251182.7076	0.001
76.3776	251918.863	0.001
76.27205	252219.0703	0.001
76.16595	251241.7391	0.001
76.0598	252599.839	0.001
75.9535	251432.765	0.001
75.84455	252915.8133	0.001
75.73795	250910.5439	0.001
75.6297	250612.1613	0.001
75.52365	252447.6834	0.001
75.4152	252507.6529	0.001
75.30565	251972.3028	0.001
75.1968	252360.3569	0.001
75.0888	252278.15	0.001
74.9812	251961.4004	0.001
74.87015	251554.564	0.001
74.76115	251914.7581	0.001
74.65305	251285.931	0.001
74.5409	252300.7265	0.001
74.43365	251155.7679	0.001
74.3253	251462.6384	0.001
74.2176	251146.911	0.001
74.1075	251771.7106	0.001
73.9994	252222.4621	0.001
73.88865	250689.2788	0.001
73.7793	250710.4364	0.001
73.67005	251292.5023	0.001
73.5608	251903.7851	0.001
73.44965	251806.6016	0.001
73.3407	251078.89	0.001
73.2306	250877.2824	0.001
73.11945	251299.2984	0.001
73.00745	250585.3998	0.001
72.89695	251470.2355	0.001
72.7865	252392.3251	0.001
72.67395	251603.9588	0.001
72.5599	250983.2868	0.001
72.44965	252314.5593	0.001
72.3412	251153.4146	0.001
72.2303	251200.8563	0.001
72.1199	250895.2354	0.001
72.0095	251791.2718	0.001
71.89945	250302.855	0.001
71.7875	250921.0639	0.001
71.6761	250426.5975	0.001
71.5657	253173.885	0.001
71.4527	251228.994	0.001
71.3416	251423.1514	0.001
71.23	251830.9083	0.001
71.1162	251235.366	0.001
71.0036	249975.1188	0.001
70.8908	250867.6096	0.001
70.77625	251760.9866	0.001
70.66245	250255.264	0.001
70.54845	250490.2858	0.001
70.4356	251721.2898	0.001
70.32265	250152.8171	0.001
70.2115	251077.7535	0.001
70.09975	251216.6538	0.001
69.9851	250408.1016	0.001
69.8725	250561.4383	0.001
69.7589	251351.9544	0.001
69.6462	250832.4713	0.001
69.53195	250405.5374	0.001
69.41735	252383.6241	0.001
69.30245	249719.3335	0.001
69.18815	250514.7596	0.001
69.073	251001.1765	0.001
68.95665	251401.2558	0.001
68.8419	250723.4171	0.001
68.72485	251418.0166	0.001
68.6088	251814.7134	0.001
68.491	250738.1316	0.001
68.3767	250646.3376	0.001
68.26265	251031.0083	0.001
68.14795	250870.8304	0.001
68.03335	250727.7904	0.001
67.91635	252172.9496	0.001
67.80265	250149.5981	0.001
67.6852	249861.1364	0.001
67.57025	249996.026	0.001
67.45315	250582.9871	0.001
67.3364	251354.0811	0.001
67.2176	250220.6178	0.001
67.09915	250633.9186	0.001
66.9819	249993.3861	0.001
66.86295	250027.6378	0.001
66.7443	249492.8848	0.001
66.6238	250613.8474	0.001
66.5047	249385.0999	0.001
66.38775	249310.4915	0.001
66.2705	249965.4519	0.001
66.1535	248988.8273	0.001
66.035	249129.8701	0.001
65.9169	250241.263	0.001
65.79785	251135.4891	0.001
65.6793	250474.8646	0.001
65.55845	250314.6133	0.001
65.44	251120.0205	0.001
65.31895	251564.9986	0.001
65.19905	250787.366	0.001
65.078	249950.8858	0.001
64.9545	252887.9871	0.001
64.8349	249132.3424	0.001
64.71205	250549.9361	0.001
64.5906	249784.6678	0.001
64.4675	250515.5735	0.001
64.34815	250179.3781	0.001
64.22685	249835.7006	0.001
64.1058	250556.148	0.001
63.98535	249637.6726	0.001
63.8637	250028.074	0.001
63.74265	250935.9866	0.001
63.6201	249460.575	0.001
63.49575	249543.0409	0.001
63.3733	250641.0986	0.001
63.2491	250357.2301	0.001
63.1256	251322.7308	0.001
63.0012	249795.8174	0.001
62.87595	251479.3011	0.001
62.74885	250141.6403	0.001
62.6245	249456.6245	0.001
62.49785	249747.0964	0.001
62.3742	249284.8461	0.001
62.2499	249784.8721	0.001
62.1257	250248.926	0.001
62.0019	249298.4163	0.001
61.8767	249175.956	0.001
61.7503	250453.498	0.001
61.62425	250441.3488	0.001
61.4981	249125.4443	0.001
61.3698	249812.0856	0.001
61.2421	248729.0518	0.001
61.115	251356.8581	0.001
60.98515	250564.5691	0.001
60.8574	250369.4818	0.001
60.7266	250149.6799	0.001
60.59715	249042.5381	0.001
60.4676	250373.656	0.001
60.3393	250139.0703	0.001
60.21235	250111.3428	0.001
60.0832	249468.5813	0.001
59.95435	249999.7116	0.001
59.8253	249388.7995	0.001
59.6953	250808.4728	0.001
59.5649	250048.4704	0.001
59.4337	249179.1645	0.001
59.30145	249815.8328	0.001
59.17025	250282.3281	0.001
59.0374	248583.4886	0.001
58.9045	249280.4811	0.001
58.76905	249322.3121	0.001
58.63485	249572.0419	0.001
58.50245	249937.8626	0.001
58.37085	249378.0025	0.001
58.2381	247697.2091	0.001
58.10585	249528.8811	0.001
57.9726	247760.76	0.001
57.83825	249594.6009	0.001
57.7026	248984.4854	0.001
57.5685	250183.4823	0.001
57.4327	249585.5313	0.001
57.29515	249625.5009	0.001
57.1575	249215.0655	0.001
57.02015	250287.598	0.001
56.8818	250445.3395	0.001
56.74415	248578.3491	0.001
56.60725	249003.3733	0.001
56.4712	248930.2933	0.001
56.3345	249029.4296	0.001
56.1974	248669.9995	0.001
56.05865	250078.1644	0.001
55.91985	248962.5186	0.001
55.77875	249219.5414	0.001
55.63835	250251.0125	0.001
55.49725	250639.0194	0.001
55.355	249132.5471	0.001
55.21225	249454.603	0.001
55.069	249335.0711	0.001
54.9277	250024.4866	0.001
54.7863	249620.4199	0.001
54.64525	248956.6889	0.001
54.5026	249023.3878	0.001
54.35995	249298.9486	0.001
54.2159	250259.9951	0.001
54.07115	250096.2944	0.001
53.9266	249571.2794	0.001
53.7808	248898.0264	0.001
53.6343	249333.363	0.001
53.4875	249165.0656	0.001
53.33835	249801.5139	0.001
53.1901	250371.6281	0.001
53.04365	248673.4915	0.001
52.8976	248997.9323	0.001
52.7508	250881.1386	0.001
52.6031	249667.8794	0.001
52.454	250192.6641	0.001
52.30515	250062.1913	0.001
52.1541	248576.8324	0.001
52.0026	249218.1966	0.001
51.85125	248857.0878	0.001
51.6979	249543.0369	0.001
51.5437	249870.5705	0.001
51.38905	249672.2675	0.001
51.2381	249141.8728	0.001
51.0857	250535.8726	0.001
50.9332	249120.7443	0.001
50.77935	248894.7268	0.001
50.6242	249614.5663	0.001
50.46895	249265.5844	0.001
50.31165	250598.1083	0.001
50.15435	249903.8839	0.001
49.99555	248312.6814	0.001
49.8354	249984.3149	0.001
49.67475	249046.3393	0.001
49.51605	250092.7619	0.001
49.35805	250377.5574	0.001
49.1995	250596.158	0.001
49.03975	249302.2309	0.001
48.8794	249087.1603	0.001
48.71655	249931.6041	0.001
48.5534	248144.0984	0.001
48.38895	249465.8075	0.001
48.2241	250313.5401	0.001
48.0578	249360.2576	0.001
47.8897	249260.578	0.001
47.72455	249931.3186	0.001
47.55935	248487.9283	0.001
47.39425	250546.082	0.001
47.22735	249343.4415	0.001
47.05955	248692.7308	0.001
46.89105	250958.8426	0.001
46.72085	248925.8414	0.001
46.54885	250630.2784	0.001
46.3751	250229.058	0.001
46.20105	249997.65	0.001
46.02605	249306.1965	0.001
45.85365	249085.2843	0.001
45.6815	248885.4865	0.001
45.5077	248902.3318	0.001
45.3321	248340.2109	0.001
45.15595	249168.744	0.001
44.9774	248621.9219	0.001
44.7978	249285.2318	0.001
44.61735	249853.0846	0.001
44.4344	248010.1875	0.001
44.256	249004.1785	0.001
44.0755	249175.0719	0.001
43.89425	248428.7955	0.001
43.71175	249637.3096	0.001
43.5272	248685.0525	0.001
43.34185	248675.414	0.001
43.15425	248196.184	0.001
42.96505	248359.1004	0.001
42.77465	248989.1314	0.001
42.5884	249252.4375	0.001
42.4006	249180.305	0.001
42.2106	248341.6511	0.001
42.0201	249217.8909	0.001
41.8262	249508.3623	0.001
41.6313	249018.502	0.001
41.4339	249429.6893	0.001
41.23525	249941.0408	0.001
41.0405	248956.9709	0.001
40.84465	248875.6734	0.001
40.64735	248828.9779	0.001
40.4475	248385.632	0.001
40.2459	248509.686	0.001
40.0426	248813.6825	0.001
39.8364	249192.9459	0.001
39.62895	248757.7653	0.001
39.4217	250497.7905	0.001
39.21715	248637.5239	0.001
39.0106	249074.4225	0.001
38.8019	248967.1126	0.001
38.5909	249974.5875	0.001
38.37695	248085.7633	0.001
38.16125	248617.2714	0.001
37.94255	249137.2455	0.001
37.7283	248643.9086	0.001
37.5125	248686.1161	0.001
37.29495	249027.5659	0.001
37.07415	248559.8123	0.001
36.8511	248119.4154	0.001
36.62495	250011.1191	0.001
36.39645	247917.7176	0.001
36.173	249919.1023	0.001
35.94725	248874.3129	0.001
35.7184	248989.9055	0.001
35.4864	250595.1813	0.001
35.25105	249543.28	0.001
35.01245	248944.7599	0.001
34.7764	251053.1278	0.001
34.5408	249876.1639	0.001
34.3021	249569.5484	0.001
34.06	248536.9899	0.001
33.81445	248721.6811	0.001
33.5652	249192.8464	0.001
33.31575	250567.6358	0.001
33.0693	249520.7211	0.001
32.8194	248174.2055	0.001
32.5649	249375.7325	0.001
32.30665	248719.769	0.001
32.04455	248140.7686	0.001
31.7865	248256.081	0.001
31.52615	248086.7923	0.001
31.26195	249580.2578	0.001
30.9924	249142.0758	0.001
30.71815	249911.6605	0.001
30.44605	249120.5405	0.001
30.17425	249376.433	0.001
29.89675	248245.5708	0.001
29.6145	248165.8635	0.001
29.32675	248714.1875	0.001
29.041	248433.1353	0.001
28.7546	248514.6774	0.001
28.46255	249336.1644	0.001
28.1645	249494.3251	0.001
27.862	248962.5803	0.001
27.56415	248280.2669	0.001
27.25975	249114.4088	0.001
26.94825	248946.2733	0.001
26.6306	248513.9236	0.001
26.31765	249380.8099	0.001
25.99925	247983.3609	0.001
25.67285	249184.803	0.001
25.3385	248629.4826	0.001
25.0094	248830.7943	0.001
24.6732	249316.9731	0.001
24.3291	248528.9231	0.001
23.98055	248646.9728	0.001
23.6332	248493.3539	0.001
23.2751	248862.0913	0.001
22.9088	249242.426	0.001
22.54655	248505.8454	0.001
22.1747	249637.5998	0.001
21.79185	248591.8213	0.001
21.41155	249543.5125	0.001
21.02355	248674.407	0.001
20.62345	249258.0238	0.001
20.22515	249921.6585	0.001
19.8165	248754.9743	0.001
19.4031	248712.3355	0.001
18.9826	249005.4589	0.001
18.55465	249219.2228	0.001
18.1236	248983.5165	0.001
17.684	249596.4679	0.001
17.23785	249029.9048	0.001
16.7875	248330.4279	0.001
16.33165	248789.6068	0.001
15.86985	248819.2665	0.001
15.40275	249400.9815	0.001
14.93415	249012.136	0.001
14.46265	248411.8728	0.001
13.98965	248270.672	0.001
13.51975	249257.8019	0.001
13.0442	248846.2718	0.001
12.57105	248352.8583	0.001
12.10165	248662.0254	0.001
11.63735	249679.2633	0.001
11.18185	250156.5186	0.001
10.7363	247779.9716	0.001
10.30275	249312.0371	0.001
9.8835	248331.7428	0.001
9.4822	248513.3395	0.001
9.09955	249563.3243	0.001
8.7376	249255.431	0.001
8.3993	249226.3941	0.001
8.08545	248957.0738	0.001
7.7968	249237.1464	0.001
7.53195	248250.8244	0.001
7.2903	249222.9794	0.001
7.0749	248128.1981	0.001
6.8796	248767.509	0.001
6.7062	248577.8985	0.001
6.5501	247802.0511	0.001
6.41405	249843.362	0.001
6.28925	248312.0733	0.001
6.181	249712.8811	0.001
6.08475	249771.8054	0.001
5.9967	248897.354	0.001
5.9157	249351.3714	0.001
5.84565	249151.8654	0.001
5.782	248490.8741	0.001
5.7227	249628.2491	0.001
5.66725	249227.4545	0.001
5.61485	248891.8723	0.001
5.5679	249942.443	0.001
5.52415	248459.8004	0.001
5.48215	248620.4851	0.001
5.44165	249878.9111	0.001
5.4025	248857.7696	0.001
5.3644	248141.7785	0.001
5.32715	250346.7049	0.001
5.2913	248820.3361	0.001
5.25825	249083.2051	0.001
5.2256	250044.5863	0.001
5.19325	248732.7129	0.001
5.16125	248788.4083	0.001
5.1296	247884.2094	0.001
5.09815	248622.1389	0.001
5.06685	248420.2353	0.001
5.03575	248522.997	0.001
5.00615	248418.5749	0.001
4.9777	248621.7786	0.001
4.9494	247888.4036	0.001
4.92105	248127.7529	0.001
4.89285	249014.2218	0.001
4.86465	248648.6878	0.001
4.83655	249171.7026	0.001
4.8086	249558.295	0.001
4.7807	248395.1134	0.001
4.75265	249347.9331	0.001
4.72615	247706.529	0.001
4.7007	249115.6305	0.001
4.67525	248304.9103	0.001
4.6499	249981.4039	0.001
4.6246	248053.0006	0.001
4.59935	248442.6614	0.001
4.57415	248073.2153	0.001
4.549	248508.0293	0.001
4.524	249251.8224	0.001
4.4989	248338.0278	0.001
4.4738	248723.9381	0.001
4.44975	249138.142	0.001
4.42705	249382.044	0.001
4.40435	248564.4235	0.001
4.38175	248180.9043	0.001
4.35925	249010.0509	0.001
4.33685	248465.6345	0.001
4.3145	251839.0776	0.001
4.2922	249614.7153	0.001
4.2701	249003.3935	0.001
4.24795	247895.1669	0.001
4.2259	248359.6805	0.001
4.2039	248754.648	0.001
4.18355	248390.4824	0.001
4.1636	248939.7531	0.001
4.1437	250366.3788	0.001
4.12395	248466.4593	0.001
4.10415	249369.5573	0.001
4.0845	248700.5861	0.001
4.06505	249006.5391	0.001
4.04565	249283.9461	0.001
4.02635	249061.411	0.001
4.00705	248623.6164	0.001
3.9881	248430.286	0.001
3.97035	249268.8216	0.001
3.95265	248779.521	0.001
3.93505	249052.4855	0.001
3.9175	248755.9725	0.001
3.90015	250099.8608	0.001
3.8828	248388.8821	0.001
3.86555	248501.5039	0.001
3.8484	248696.1719	0.001
3.83145	248802.9081	0.001
3.8149	249068.1038	0.001
3.7993	248649.2561	0.001
3.78375	249156.6519	0.001
3.7683	247979.7378	0.001
3.7529	248360.7391	0.001
3.73765	248039.6738	0.001
3.7225	248799.4563	0.001
3.70745	247589.7803	0.001
3.69245	249380.6341	0.001
3.67765	248216.9084	0.001
3.6629	248800.5821	0.001
3.6482	250182.7058	0.001
3.63425	248342.5244	0.001
3.62045	248803.0186	0.001
3.6068	248512.8508	0.001
3.59335	249811.8856	0.001
3.58015	248597.8299	0.001
3.56705	248789.2965	0.001
3.5541	250338.2249	0.001
3.54135	248731.4999	0.001
3.52885	249097.7505	0.001
3.51625	249566.2594	0.001
3.50385	249241.0579	0.001
3.4916	248770.6053	0.001
3.47955	248956.3798	0.001
3.4684	248759.6419	0.001
3.4573	248776.629	0.001
3.44635	248038.2315	0.001
3.43545	248919.7355	0.001
3.42455	249078.1589	0.001
3.41385	249638.9784	0.001
3.4032	248741.8614	0.001
3.39265	249042.5764	0.001
3.38215	250222.3953	0.001
3.37175	248450.2439	0.001
3.36145	249420.8695	0.001
3.35115	249244.0926	0.001
3.34095	249394.9786	0.001
3.3308	248343.9739	0.001
3.3208	248312.0009	0.001
3.3114	248701.7986	0.001
3.30215	248780.6368	0.001
3.29305	249493.7689	0.001
3.28405	248752.1638	0.001
3.2751	248370.3254	0.001
3.2663	249520.0014	0.001
3.2575	249032.179	0.001
3.24875	248717.0021	0.001
3.24005	249746.8674	0.001
3.2314	249175.2406	0.001
3.22295	249301.8078	0.001
3.21455	249434.0175	0.001
3.2062	250142.1278	0.001
3.1979	248212.435	0.001
3.18965	249039.4343	0.001
3.1814	248444.48	0.001
3.17325	248438.38	0.001
3.1651	248872.8341	0.001
3.15735	248572.2953	0.001
3.15005	249870.3821	0.001
3.14285	248832.012	0.001
3.1357	249121.9095	0.001
3.12855	249614.726	0.001
3.1216	248590.9183	0.001
3.1146	249083.6539	0.001
3.10775	248587.1891	0.001
3.10095	248668.718	0.001
3.0941	248852.4465	0.001
3.08735	248017.5363	0.001
3.08075	249283.0248	0.001
3.0741	249059.5479	0.001
3.06765	249459.5728	0.001
3.0613	248491.1554	0.001
3.0549	248376.5196	0.001
3.04875	249410.3068	0.001
3.0426	248602.7288	0.001
3.0365	247784.6219	0.001
3.03045	248420.7619	0.001
3.02445	248168.9483	0.001
3.0186	250099.8463	0.001
3.0128	249536.5945	0.001
3.00725	247800.9198	0.001
3.002	251331.2359	0.001
2.9967	248225.2848	0.001
2.9915	249425.575	0.001
2.98635	247997.2029	0.001
2.98135	248274.6745	0.001
2.9764	249093.4031	0.001
2.97145	249610.0276	0.001
2.96655	248827.4761	0.001
2.9618	249069.5984	0.001
2.95705	248977.9834	0.001
2.95245	248115.6833	0.001
2.948	248356.4751	0.001
2.9435	247975.3199	0.001
2.9391	249100.2748	0.001
2.93475	249472.702	0.001
2.93055	249554.471	0.001
2.9265	248122.4026	0.001
2.9223	249105.4171	0.001
2.91825	248229.9311	0.001
2.9143	251164.4934	0.001
2.9104	248794.8168	0.001
2.90645	249532.1464	0.001
2.90275	248515.109	0.001
2.8989	249578.0136	0.001
2.89525	250095.5324	0.001
2.8916	249043.919	0.001
2.88815	248948.1364	0.001
2.8847	248012.7616	0.001
2.88135	247920.2644	0.001
2.878	247991.504	0.001
2.8748	248409.3181	0.001
2.8717	248268.8855	0.001
2.86875	249024.282	0.001
2.86565	248137.9823	0.001
2.86275	249764.594	0.001
2.85985	248383.7879	0.001
2.8572	248342.4096	0.001
2.8546	247598.1651	0.001
2.85215	248614.6625	0.001
2.84965	248438.684	0.001
2.8473	249131.3258	0.001
2.845	247548.2751	0.001
2.8428	248114.812	0.001
2.84065	248875.1155	0.001
2.83855	249020.8198	0.001
2.83655	250260.1339	0.001
2.8347	249324.3231	0.001
2.83285	249904.7194	0.001
2.83115	247916.0104	0.001
2.82945	248388.955	0.001
2.8278	248585.2925	0.001
2.82625	249053.787	0.001
2.8246	249501.753	0.001
2.823	248293.7965	0.001
2.82135	247333.8683	0.001
2.8198	249115.2024	0.001
2.81845	249197.878	0.001
2.817	248866.9043	0.001
2.8158	249286.224	0.001
2.8145	247852.3939	0.001
2.81335	248125.7651	0.001
2.8122	248540.852	0.001
2.811	248039.8218	0.001
2.80985	249101.4229	0.001
2.8089	248790.7625	0.001
2.80785	248975.8183	0.001
2.8069	249057.9348	0.001
2.8059	248756.9121	0.001
2.8051	247580.6324	0.001
2.8042	248771.2379	0.001
2.8034	248593.6195	0.001
2.80265	248575.0936	0.001
2.80175	248286.6425	0.001
2.801	248524.624	0.001
2.8002	248510.0778	0.001
2.7995	248602.2038	0.001
2.7988	248252.6851	0.001
2.7981	248968.0199	0.001
2.79745	250309.9125	0.001
2.7968	249554.2854	0.001
2.7962	248903.8753	0.001
2.7957	248820.0073	0.001
2.7951	249530.015	0.001
2.7945	249066.3945	0.001
2.794	248407.7126	0.001
2.79345	249483.3806	0.001
2.79305	249155.5834	0.001
2.79255	249023.2094	0.001
2.79225	249038.6251	0.001
2.7918	248564.3928	0.001
2.79125	248910.7733	0.001
2.79075	250377.3036	0.001
2.79035	248867.6921	0.001
2.78985	249759.311	0.001
2.78935	248245.7564	0.001
2.78895	250113.638	0.001
2.7886	249763.9696	0.001
2.78825	248162.1235	0.001
2.78795	248154.8991	0.001
2.78765	249045.5085	0.001
2.7873	249416.9474	0.001
2.78685	248483.4356	0.001
2.78655	249425.0601	0.001
2.7862	248443.51	0.001
2.7859	248266.3584	0.001
2.7856	248537.1384	0.001
2.78535	249404.8485	0.001
2.78515	249168.4448	0.001
2.7849	247768.609	0.001
2.78465	249743.5391	0.001
2.78435	249768.2953	0.001
2.7841	247971.6854	0.001
2.78385	248958.0418	0.001
2.7836	248066.8813	0.001
2.78335	248055.8114	0.001
2.78315	248309.6365	0.001
2.78295	249028.199	0.001
2.78275	248183.1501	0.001
2.78255	248519.2248	0.001
2.78235	248742.0199	0.001
2.7822	248287.6055	0.001
2.78205	249198.2758	0.001
2.7819	247818.7706	0.001
2.7818	249260.0355	0.001
2.78155	249343.5804	0.001
2.78125	248063.7456	0.001
2.78105	248785.9268	0.001
2.7809	249560.097	0.001
2.7807	249807.7199	0.001
2.78055	248568.0009	0.001
2.78035	247758.6365	0.001
2.7803	247929.804	0.001
2.78025	248917.6816	0.001
2.7801	248247.8331	0.001
2.78	248284.5071	0.001
2.7799	248493.9128	0.001
2.7797	248939.1079	0.001
2.7796	249541.9171	0.001
2.7794	248671.4956	0.001
