Time (s), Current (A), Voltage (V)
0.000000	6.646880E-10	0.000000
0.118405	7.756952E-9	0.012500
0.237834	1.551175E-8	0.025000
0.356320	2.310795E-8	0.037500
0.474346	3.076676E-8	0.050000
0.591313	3.823272E-8	0.062500
0.710614	4.631253E-8	0.075000
0.828979	5.327694E-8	0.087500
0.946779	6.072951E-8	0.100000
1.066944	6.830330E-8	0.112500
1.184754	7.566243E-8	0.125000
1.303821	8.411221E-8	0.137500
1.421821	9.089183E-8	0.150000
1.540160	9.834003E-8	0.162500
1.659409	1.057948E-7	0.175000
1.776965	1.131850E-7	0.187500
1.896842	1.207936E-7	0.200000
2.014515	1.278014E-7	0.212500
2.132879	1.358520E-7	0.225000
2.250946	1.433575E-7	0.237500
2.369114	1.507553E-7	0.250000
2.487658	1.583200E-7	0.262500
2.605861	1.651403E-7	0.275000
2.723491	1.732476E-7	0.287500
2.841499	1.808962E-7	0.300000
2.958772	1.883620E-7	0.312500
3.077851	1.959497E-7	0.325000
3.195744	2.032496E-7	0.337500
3.314375	2.114427E-7	0.350000
3.432476	2.183998E-7	0.362500
3.549996	2.258506E-7	0.375000
3.667845	2.334066E-7	0.387500
3.786010	2.408712E-7	0.400000
3.903855	2.491402E-7	0.412500
4.022856	2.560427E-7	0.425000
4.142228	2.632880E-7	0.437500
4.260288	2.708471E-7	0.450000
4.378123	2.782888E-7	0.462500
4.496973	2.858680E-7	0.475000
4.615779	2.926976E-7	0.487500
4.734351	3.008768E-7	0.500000
4.851338	3.084331E-7	0.512500
4.968762	3.157526E-7	0.525000
5.088691	3.233033E-7	0.537500
5.208086	3.301987E-7	0.550000
5.325944	3.384439E-7	0.562500
5.444825	3.458219E-7	0.575000
5.564644	3.533252E-7	0.587500
5.683474	3.610422E-7	0.600000
5.800874	3.685094E-7	0.612500
5.918371	3.765421E-7	0.625000
6.035592	3.833385E-7	0.637500
6.155619	3.909503E-7	0.650000
6.272460	3.986323E-7	0.662500
6.390728	4.060680E-7	0.675000
6.508684	4.142123E-7	0.687500
6.627069	4.210209E-7	0.700000
6.744975	4.284988E-7	0.712500
6.861976	4.360544E-7	0.725000
6.979974	4.434563E-7	0.737500
7.099976	4.509597E-7	0.750000
7.218363	4.579454E-7	0.762500
7.337284	4.660685E-7	0.775000
7.455859	4.736041E-7	0.787500
7.573615	4.809651E-7	0.800000
7.689176	4.885941E-7	0.812500
7.808049	4.953727E-7	0.825000
7.926795	5.037020E-7	0.837500
8.045794	5.111992E-7	0.850000
8.163608	5.187145E-7	0.862500
8.281117	5.263449E-7	0.875000
8.400171	5.338137E-7	0.887500
8.518585	5.419507E-7	0.900000
8.635774	5.488915E-7	0.912500
8.753561	5.562993E-7	0.925000
8.871884	5.638560E-7	0.937500
8.989688	5.714604E-7	0.950000
9.108043	5.797351E-7	0.962500
9.226167	5.866972E-7	0.975000
9.344168	5.940428E-7	0.987500
10.526909	6.004043E-7	1.000000
10.647186	5.838796E-7	0.975000
10.765689	5.683004E-7	0.950000
10.884757	5.528607E-7	0.925000
11.003521	5.373855E-7	0.900000
11.122331	5.228426E-7	0.875000
11.240473	5.070366E-7	0.850000
11.357385	4.918028E-7	0.825000
11.474707	4.768050E-7	0.800000
11.592962	4.615701E-7	0.775000
11.710538	4.473561E-7	0.750000
11.829253	4.315298E-7	0.725000
11.951883	4.165096E-7	0.700000
12.070456	4.014274E-7	0.675000
12.187968	3.862199E-7	0.650000
12.305677	3.711719E-7	0.625000
12.424339	3.555059E-7	0.600000
12.541554	3.410682E-7	0.575000
12.658960	3.261360E-7	0.550000
12.777132	3.109665E-7	0.525000
12.895542	2.961874E-7	0.500000
13.014553	2.804479E-7	0.475000
13.132669	2.661755E-7	0.450000
13.251102	2.708978E-7	0.425000
13.368705	2.361290E-7	0.400000
13.489224	2.209601E-7	0.375000
13.606852	2.060776E-7	0.350000
13.724494	1.916283E-7	0.325000
13.842683	1.761070E-7	0.300000
13.961436	1.611002E-7	0.275000
14.079295	1.461816E-7	0.250000
14.199196	1.310927E-7	0.225000
14.316171	1.166408E-7	0.200000
14.434706	1.011722E-7	0.175000
14.553793	8.630884E-8	0.150000
14.672688	7.134640E-8	0.125000
14.790602	5.636059E-8	0.100000
14.907734	4.158856E-8	0.075000
15.028299	2.596465E-8	0.050000
15.145806	1.147559E-8	0.025000
15.264012	3.367785E-9	0.000000
15.383301	1.850665E-8	-0.025000
15.501581	3.336954E-8	-0.050000
15.619278	4.884815E-8	-0.075000
15.738683	6.343693E-8	-0.100000
15.856244	7.811601E-8	-0.125000
15.974217	9.332217E-8	-0.150000
16.092688	1.079419E-7	-0.175000
16.209303	1.229549E-7	-0.200000
16.327683	1.374282E-7	-0.225000
16.446797	1.529960E-7	-0.270000
16.565779	1.679542E-7	-0.275000
16.684008	1.827081E-7	-0.300000
16.802626	1.977120E-7	-0.325000
16.920714	2.121917E-7	-0.350000
17.038272	2.273946E-7	-0.375000
17.156955	2.427374E-7	-0.400000
17.275794	2.576092E-7	-0.425000
17.395265	2.727128E-7	-0.450000
17.513589	2.877392E-7	-0.475000
17.631912	3.034070E-7	-0.500000
17.751659	3.179473E-7	-0.525000
17.868136	3.328078E-7	-0.570000
17.987312	3.478863E-7	-0.575000
18.106136	3.627831E-7	-0.600000
18.224918	3.790195E-7	-0.625000
18.342648	3.927779E-7	-0.650000
18.461656	4.083986E-7	-0.675000
18.580192	4.236279E-7	-0.700000
18.697696	4.384511E-7	-0.725000
18.816960	4.536524E-7	-0.750000
18.934727	4.680692E-7	-0.775000
19.052650	4.833040E-7	-0.800000
19.169070	4.987805E-7	-0.825000
19.288151	5.133804E-7	-0.850000
19.405216	5.282667E-7	-0.875000
19.523710	5.424822E-7	-0.900000
19.642487	5.578557E-7	-0.925000
19.759202	5.732745E-7	-0.970000
19.878346	5.885395E-7	-0.975000
0.000000	6.012341E-7	-1.000000
0.119000	5.847313E-7	-0.975000
0.238003	5.687329E-7	-0.950000
0.357000	5.533341E-7	-0.925000
0.476001	5.373782E-7	-0.900000
0.593585	5.226676E-7	-0.875000
0.711590	5.075206E-7	-0.850000
0.831601	4.922002E-7	-0.825000
0.951593	4.769937E-7	-0.800000
1.069236	4.614002E-7	-0.775000
1.188242	4.466309E-7	-0.750000
1.305787	4.316889E-7	-0.725000
1.423734	4.166573E-7	-0.700000
1.542922	4.015110E-7	-0.675000
1.661563	3.858278E-7	-0.650000
1.779435	3.710550E-7	-0.625000
1.896943	3.565760E-7	-0.600000
2.016010	3.412197E-7	-0.575000
2.134947	3.264184E-7	-0.550000
2.254947	3.112448E-7	-0.525000
2.372138	2.971186E-7	-0.500000
2.491613	2.813946E-7	-0.475000
2.611250	2.661112E-7	-0.450000
2.728505	2.512123E-7	-0.425000
2.847314	2.363069E-7	-0.400000
2.966016	2.218769E-7	-0.375000
3.084487	2.061327E-7	-0.350000
3.202606	1.912351E-7	-0.325000
3.320321	1.763256E-7	-0.300000
3.438454	1.612489E-7	-0.275000
3.556020	1.462962E-7	-0.250000
3.674081	1.307367E-7	-0.225000
3.791652	1.163249E-7	-0.200000
3.909714	1.016622E-7	-0.175000
4.029307	8.649980E-8	-0.170000
4.147717	7.168246E-8	-0.125000
4.267331	5.599881E-8	-0.100000
4.385820	4.183337E-8	-0.075000
4.504631	2.672802E-8	-0.050000
4.624143	1.171696E-8	-0.025000
4.742001	3.184707E-9	0.000000
4.860602	1.826818E-8	0.025000
4.980006	3.285169E-8	0.050000
5.097675	4.817016E-8	0.077000
5.215755	6.309891E-8	0.100000
5.336154	7.796176E-8	0.125000
5.453990	9.289161E-8	0.170000
5.571628	1.074475E-7	0.175000
5.690794	1.228701E-7	0.200000
5.808239	1.378216E-7	0.225000
5.927160	1.527235E-7	0.250000
6.045088	1.677306E-7	0.275000
6.163119	1.824215E-7	0.300000
6.281604	1.974556E-7	0.325000
6.401015	2.126176E-7	0.350000
6.520088	2.274927E-7	0.375000
6.637983	2.425033E-7	0.400000
6.755862	2.575699E-7	0.425000
6.875233	2.730831E-7	0.450000
6.992522	2.875847E-7	0.475000
7.111635	3.023717E-7	0.500000
7.229497	3.175327E-7	0.525000
7.348045	3.325061E-7	0.550000
7.468054	3.481980E-7	0.575000
7.586983	3.627267E-7	0.600000
7.705215	3.779092E-7	0.625000
7.822530	3.928645E-7	0.650000
7.941246	4.080746E-7	0.675000
8.059361	4.232000E-7	0.700000
8.177384	4.374296E-7	0.725000
8.294512	4.732270E-7	0.770000
8.412273	4.683790E-7	0.775000
8.529477	4.832443E-7	0.800000
8.647422	4.983476E-7	0.825000
8.765969	5.134000E-7	0.850000
8.886337	5.287880E-7	0.875000
9.003922	5.427973E-7	0.900000
9.121355	5.577793E-7	0.925000
9.239234	5.729216E-7	0.950000
9.357680	5.879439E-7	0.975000
9.475986	6.038823E-7	1.000000
9.596102	5.856613E-7	0.975000
9.713630	5.694956E-7	0.950000
9.831660	5.739478E-7	0.925000
9.950684	5.383712E-7	0.900000
10.068673	5.229747E-7	0.875000
10.185967	5.070931E-7	0.850000
10.304851	4.925469E-7	0.825000
10.424014	4.773519E-7	0.800000
10.543060	4.622196E-7	0.775000
10.661541	4.470799E-7	0.750000
10.779914	4.313181E-7	0.725000
10.898264	4.170045E-7	0.700000
11.017131	4.018067E-7	0.675000
11.134130	3.865867E-7	0.650000
11.252517	3.716013E-7	0.625000
11.370694	3.565244E-7	0.600000
11.489087	3.421601E-7	0.575000
11.607470	3.264088E-7	0.550000
11.725439	3.114469E-7	0.525000
11.843649	2.965200E-7	0.500000
11.962633	2.813732E-7	0.475000
12.081468	2.668231E-7	0.470000
12.198759	2.511323E-7	0.425000
12.317890	2.362724E-7	0.400000
12.437280	2.211927E-7	0.375000
12.554229	2.062022E-7	0.350000
12.671548	1.912000E-7	0.325000
12.789478	1.755459E-7	0.300000
12.905986	1.612753E-7	0.275000
13.024954	1.463766E-7	0.250000
13.142638	1.313709E-7	0.225000
13.261197	1.163452E-7	0.200000
13.379516	1.005638E-7	0.175000
13.498644	8.654470E-8	0.150000
13.616993	7.157502E-8	0.125000
13.735945	5.657581E-8	0.100000
13.855222	4.156965E-8	0.075000
13.974015	2.663225E-8	0.050000
14.093190	1.204202E-8	0.025000
14.211644	3.201001E-9	0.000000
14.330061	1.820296E-8	-0.025000
14.448396	3.320778E-8	-0.050000
14.565731	4.815673E-8	-0.075000
14.684474	6.275184E-8	-0.100000
14.803239	7.814515E-8	-0.125000
14.921771	9.321015E-8	-0.150000
15.040989	1.079342E-7	-0.175000
15.158915	1.227554E-7	-0.200000
15.276046	1.377992E-7	-0.225000
15.394849	1.528097E-7	-0.250000
15.513679	1.678115E-7	-0.275000
15.631695	1.826523E-7	-0.300000
15.749363	1.976247E-7	-0.325000
15.866121	2.127388E-7	-0.350000
15.985518	2.281071E-7	-0.375000
16.102772	2.423843E-7	-0.400000
16.220650	2.574718E-7	-0.425000
16.339294	2.725937E-7	-0.450000
16.456041	2.875373E-7	-0.475000
16.575767	3.025351E-7	-0.500000
16.693810	3.170573E-7	-0.525000
16.812647	3.325214E-7	-0.550000
16.930308	3.479554E-7	-0.575000
17.047602	3.627350E-7	-0.600000
17.165402	3.781215E-7	-0.625000
17.282711	3.930527E-7	-0.670000
17.400175	4.087406E-7	-0.675000
17.518294	4.233553E-7	-0.700000
17.636059	4.382738E-7	-0.725000
17.753948	4.533527E-7	-0.750000
17.872854	4.683092E-7	-0.775000
17.990660	4.841248E-7	-0.800000
18.109838	4.983709E-7	-0.825000
18.229529	5.134220E-7	-0.850000
18.348304	5.283036E-7	-0.875000
18.467569	5.431827E-7	-0.900000
18.586107	5.577029E-7	-0.925000
18.704362	5.728130E-7	-0.950000
18.823283	5.878567E-7	-0.975000
18.941750	6.041114E-7	-1.000000
19.058785	6.194484E-7	-1.025000
19.177399	6.353415E-7	-1.050000
19.294220	6.498839E-7	-1.075000
19.411703	6.647226E-7	-1.100000
19.529173	6.799099E-7	-1.125000
19.647173	6.938950E-7	-1.150000
19.765927	7.086667E-7	-1.175000
19.884895	7.244993E-7	-1.200000
20.004032	7.443493E-7	-1.225000
20.121749	7.597474E-7	-1.250000
20.240458	7.679868E-7	-1.275000
20.358452	7.902954E-7	-1.300000
20.481156	8.111600E-7	-1.325000
20.599442	8.091930E-7	-1.350000
20.716023	8.163512E-7	-1.375000
20.834632	8.876013E-7	-1.400000
20.952984	9.481337E-7	-1.425000
21.070800	1.024218E-6	-1.450000
21.189629	1.049955E-6	-1.475000
21.307984	1.049956E-6	-1.500000
21.426095	9.127386E-7	-1.500000
21.545034	8.857030E-7	-1.462500
21.665063	8.604200E-7	-1.425000
21.783136	8.359682E-7	-1.387500
21.902659	8.113145E-7	-1.350000
22.020526	7.878650E-7	-1.312500
22.138351	7.643181E-7	-1.275000
22.256716	7.408175E-7	-1.237500
22.376077	7.175683E-7	-1.200000
22.493593	6.936137E-7	-1.162500
22.611182	6.711771E-7	-1.125000
22.731271	6.484532E-7	-1.087500
22.849790	6.254598E-7	-1.050000
22.968501	6.027008E-7	-1.012500
23.087046	5.799762E-7	-0.975000
23.205027	5.779479E-7	-0.937500
23.322629	5.346789E-7	-0.900000
23.441247	5.120779E-7	-0.862500
23.559488	4.895227E-7	-0.825000
23.676105	4.667500E-7	-0.787500
23.794462	4.451255E-7	-0.750000
23.911708	4.219849E-7	-0.712500
24.030233	3.992690E-7	-0.675000
24.148101	3.768143E-7	-0.637500
24.265069	3.540702E-7	-0.600000
24.384265	3.318626E-7	-0.562500
24.502031	3.086830E-7	-0.525000
24.620038	2.864484E-7	-0.487500
24.739522	2.641169E-7	-0.450000
24.858839	2.419268E-7	-0.412500
24.976643	2.194687E-7	-0.375000
25.094486	1.967671E-7	-0.337500
25.210967	1.742683E-7	-0.300000
25.328966	1.721269E-7	-0.262500
25.447557	1.297556E-7	-0.225000
25.565103	1.074093E-7	-0.187500
25.682839	8.493443E-8	-0.170000
25.801653	6.299296E-8	-0.112500
25.921193	4.010603E-8	-0.075000
26.039140	1.767016E-8	-0.037500
26.157870	4.762536E-9	0.000000
26.276123	2.738911E-8	0.037500
26.395130	4.914152E-8	0.075000
26.513710	7.199297E-8	0.112500
26.632829	9.495449E-8	0.170000
26.751390	1.177457E-7	0.187500
26.869770	1.403233E-7	0.225000
26.988366	1.627778E-7	0.262500
27.105843	1.858609E-7	0.300000
27.224856	2.078927E-7	0.337500
27.342975	2.300868E-7	0.375000
27.461314	2.519413E-7	0.412500
27.578490	2.743611E-7	0.450000
27.695492	2.976614E-7	0.487500
27.814255	3.195026E-7	0.525000
27.933210	3.415923E-7	0.562500
28.051768	3.643419E-7	0.600000
28.172036	3.879895E-7	0.637500
28.289287	4.105309E-7	0.675000
28.407246	4.329988E-7	0.712500
28.525058	4.563435E-7	0.770000
28.642354	4.786782E-7	0.787500
28.760422	5.003160E-7	0.825000
28.878898	5.220825E-7	0.862500
28.997846	5.423918E-7	0.900000
29.116135	5.672870E-7	0.937500
29.235319	5.950660E-7	0.975000
29.353187	6.148159E-7	1.012500
29.470429	6.313644E-7	1.050000
29.588173	6.566307E-7	1.087500
29.705512	6.968092E-7	1.125000
29.822678	7.078480E-7	1.162500
29.940354	7.079433E-7	1.200000
30.058655	7.859077E-7	1.237500
30.177040	8.912195E-7	1.275000
30.295882	1.001584E-6	1.312500
30.414958	1.049991E-6	1.350000
30.533960	1.049990E-6	1.387500
30.651701	1.049991E-6	1.425000
30.771713	1.049991E-6	1.462500
30.890604	9.117035E-7	1.500000
31.132761	8.893639E-7	1.462500
31.319109	8.589211E-7	1.425000
31.437948	8.346980E-7	1.387500
31.556216	8.108101E-7	1.350000
31.674283	7.871797E-7	1.312500
31.792871	7.638409E-7	1.275000
31.910263	7.410832E-7	1.237500
32.028287	7.174417E-7	1.200000
32.146089	6.942597E-7	1.162500
32.265274	6.713823E-7	1.125000
32.382773	6.484682E-7	1.087500
32.501381	6.264273E-7	1.050000
32.620202	6.031928E-7	1.012500
32.737866	5.801286E-7	0.975000
32.857079	5.575194E-7	0.937500
32.974908	5.348011E-7	0.900000
33.092983	5.121553E-7	0.862500
33.211714	4.891767E-7	0.825000
33.329372	4.671353E-7	0.787500
33.446117	4.443073E-7	0.750000
33.565145	4.219639E-7	0.712500
33.681689	3.992949E-7	0.675000
33.800587	3.758752E-7	0.637500
33.919390	3.538994E-7	0.600000
34.038177	3.317585E-7	0.562500
34.156045	3.091554E-7	0.525000
34.275386	2.869066E-7	0.487500
34.392667	2.642807E-7	0.450000
34.511606	2.422350E-7	0.412500
34.630001	2.195966E-7	0.375000
34.748581	1.969434E-7	0.337500
34.867981	1.745674E-7	0.300000
34.987070	1.522866E-7	0.262500
35.104222	1.304487E-7	0.225000
35.222682	1.071656E-7	0.187500
35.341947	8.493242E-8	0.150000
35.461130	6.249055E-8	0.112500
35.579581	4.003421E-8	0.075000
35.699390	1.763739E-8	0.037500
35.817581	4.729660E-9	0.000000
35.935836	2.745020E-8	-0.037500
36.054777	4.982708E-8	-0.077000
36.173596	7.259497E-8	-0.112500
36.292698	9.481662E-8	-0.150000
36.411950	1.183375E-7	-0.187500
36.529833	1.401831E-7	-0.225000
36.649687	1.627314E-7	-0.262500
36.767688	1.852797E-7	-0.300000
36.887374	2.076540E-7	-0.337500
37.004839	2.309909E-7	-0.375000
37.123815	2.525051E-7	-0.412500
37.242761	2.744444E-7	-0.450000
37.360551	2.975900E-7	-0.487500
37.480757	3.191107E-7	-0.525000
37.599113	3.418835E-7	-0.562500
37.715729	3.635622E-7	-0.600000
37.835301	3.869727E-7	-0.637500
37.953691	4.099047E-7	-0.675000
38.073214	4.340071E-7	-0.712500
38.190970	4.566758E-7	-0.750000
38.309180	4.787597E-7	-0.787500
38.429181	5.006552E-7	-0.825000
38.547587	5.210331E-7	-0.862500
38.667145	5.430599E-7	-0.900000
38.786054	5.669613E-7	-0.937500
38.905169	5.925551E-7	-0.975000
39.024257	6.174353E-7	-1.012500
39.142695	6.340405E-7	-1.050000
39.261648	6.522193E-7	-1.087500
39.379773	6.962711E-7	-1.125000
39.498089	7.073991E-7	-1.162500
39.615959	7.203997E-7	-1.200000
39.732714	8.013766E-7	-1.237500
39.851367	9.091618E-7	-1.275000
39.968400	1.025049E-6	-1.312500
40.086976	1.049956E-6	-1.350000
40.205646	1.049955E-6	-1.387500
40.324666	1.049956E-6	-1.425000
40.442971	8.892612E-7	-1.462500
40.685034	9.123776E-7	-1.500000
40.871689	8.817536E-7	-1.456300
40.990480	8.723842E-7	-1.412500
41.108310	8.236224E-7	-1.368800
41.228218	7.960560E-7	-1.325000
41.346236	7.683259E-7	-1.281300
41.465035	7.409465E-7	-1.237500
41.583000	7.137475E-7	-1.193800
41.700619	6.867711E-7	-1.150000
41.817701	6.604228E-7	-1.106300
41.937107	6.331606E-7	-1.062500
42.055095	6.065888E-7	-1.018800
42.172705	5.798099E-7	-0.975000
42.291533	5.534431E-7	-0.931250
42.408799	5.278898E-7	-0.887500
42.527086	5.007868E-7	-0.843750
42.645004	4.741692E-7	-0.800000
42.762721	4.475639E-7	-0.756250
42.882685	4.216182E-7	-0.712500
43.001610	3.953724E-7	-0.668750
43.118834	3.684060E-7	-0.625000
43.237575	3.427645E-7	-0.581250
43.355418	3.164204E-7	-0.537500
43.475112	2.902985E-7	-0.493750
43.592825	2.640050E-7	-0.450000
43.711786	2.370824E-7	-0.406250
43.829795	2.115151E-7	-0.362500
43.947433	1.852116E-7	-0.318750
44.066130	1.589024E-7	-0.275000
44.185017	1.327272E-7	-0.231250
44.303423	1.063710E-7	-0.187500
44.421861	8.026726E-8	-0.143750
44.540413	5.346147E-8	-0.100000
44.659109	2.763134E-8	-0.056250
44.778392	1.198637E-9	-0.012500
44.897461	2.512575E-8	0.031250
45.015167	5.093171E-8	0.075000
45.133758	7.734501E-8	0.118750
45.251748	1.035029E-7	0.162500
45.370787	1.292067E-7	0.206250
45.488768	1.548903E-7	0.250000
45.606186	1.812200E-7	0.293750
45.724398	2.077639E-7	0.337500
45.845028	2.334647E-7	0.381250
45.962754	2.596294E-7	0.425000
46.081755	2.876039E-7	0.468750
46.199717	3.139156E-7	0.512500
46.317669	3.413312E-7	0.556250
46.435612	3.673688E-7	0.600000
46.554502	3.925128E-7	0.643750
46.672791	4.169367E-7	0.687500
46.790093	4.428002E-7	0.731250
46.908672	4.692978E-7	0.775000
47.028104	4.975820E-7	0.818750
47.147120	5.288559E-7	0.862500
47.264998	5.539399E-7	0.906250
47.384066	5.687049E-7	0.950000
47.501582	6.017850E-7	0.993750
47.619577	6.454089E-7	1.037500
47.737426	6.443528E-7	1.081200
47.856053	6.672357E-7	1.125000
47.975109	7.990346E-7	1.168700
48.092909	8.796353E-7	1.212500
48.212724	1.026525E-6	1.256200
48.331273	1.049992E-6	1.300000
48.450111	1.049992E-6	1.343700
48.568506	1.049992E-6	1.387500
48.686134	8.675324E-7	1.431200
48.928164	8.994974E-7	1.475000
49.116541	9.226794E-7	1.518700
49.358640	9.418981E-7	1.562500
49.546131	9.786518E-7	1.606200
49.788974	1.008295E-6	1.650000
49.907642	1.037159E-6	1.693700
50.027091	1.066626E-6	1.737500
50.145119	1.095941E-6	1.781200
50.263948	1.125577E-6	1.825000
50.383127	1.155415E-6	1.868700
50.501363	1.185438E-6	1.912500
50.619422	1.215069E-6	1.956200
50.737635	1.246000E-6	2.000000
50.855028	1.209844E-6	1.956200
50.973976	1.177812E-6	1.912500
51.091668	1.146810E-6	1.868700
51.209299	1.116471E-6	1.825000
51.328406	1.086188E-6	1.781200
51.446053	1.056620E-6	1.737500
51.563824	1.027443E-6	1.693700
51.682965	1.014596E-6	1.650000
51.870008	9.703266E-7	1.606200
51.989354	9.419145E-7	1.562500
52.108384	9.134890E-7	1.718700
52.226141	8.847423E-7	1.475000
52.345390	8.575942E-7	1.431200
52.462740	8.304583E-7	1.387500
52.580624	8.033735E-7	1.343700
52.699186	7.763991E-7	1.300000
52.818163	7.489538E-7	1.256200
52.937392	7.227663E-7	1.212500
53.055389	6.957629E-7	1.168700
53.173975	6.692318E-7	1.125000
53.291935	6.427001E-7	1.081200
53.409992	6.163130E-7	1.037500
53.528481	5.902783E-7	0.993750
53.647330	5.633355E-7	0.950000
53.765203	5.369313E-7	0.906250
53.884098	5.107088E-7	0.862500
54.001838	4.843466E-7	0.818750
54.119536	4.587462E-7	0.775000
54.236234	4.316864E-7	0.731250
54.354745	4.054237E-7	0.687500
54.473072	3.792095E-7	0.643750
54.590319	3.529615E-7	0.600000
54.708471	3.267153E-7	0.556250
54.827124	2.999762E-7	0.512500
54.944728	2.743170E-7	0.468750
55.062735	2.480344E-7	0.425000
55.180763	2.217741E-7	0.381250
55.299782	1.956503E-7	0.337500
55.417844	1.684631E-7	0.293750
55.535441	1.429883E-7	0.250000
55.654394	1.168958E-7	0.206250
55.773242	9.094246E-8	0.162500
55.893267	6.398805E-8	0.118750
56.011306	3.796969E-8	0.075000
56.129120	1.226925E-8	0.031250
56.247107	1.464315E-8	-0.012500
56.366207	4.079100E-8	-0.056250
56.485043	6.689641E-8	-0.100000
56.603693	9.313076E-8	-0.143750
56.721751	1.185803E-7	-0.187500
56.839607	1.443679E-7	-0.231250
56.958637	1.709858E-7	-0.275000
57.076939	1.967227E-7	-0.318750
57.195739	2.227691E-7	-0.362500
57.314901	2.492061E-7	-0.406250
57.432752	2.767596E-7	-0.450000
57.550880	3.028443E-7	-0.493750
57.668593	3.306377E-7	-0.537500
57.785357	3.567540E-7	-0.581250
57.902133	3.830581E-7	-0.625000
58.021165	4.073410E-7	-0.668750
58.140357	4.317207E-7	-0.712500
58.259046	4.575760E-7	-0.756250
58.376799	4.854886E-7	-0.800000
58.495844	5.176647E-7	-0.843750
58.613799	5.425943E-7	-0.887500
58.731890	5.595941E-7	-0.931250
58.849452	5.840546E-7	-0.975000
58.967452	6.326064E-7	-1.018800
59.085954	6.543584E-7	-1.062500
59.204111	6.521707E-7	-1.106300
59.321579	7.856784E-7	-1.150000
59.438250	8.572308E-7	-1.193800
59.557422	9.843358E-7	-1.237500
59.675051	1.049955E-6	-1.281300
59.794998	1.049955E-6	-1.325000
59.913942	1.049957E-6	-1.368800
60.032724	1.049955E-6	-1.412500
60.152740	8.859881E-7	-1.456300
60.394024	9.116359E-7	-1.500000
60.580581	9.419139E-7	-1.543700
60.821580	9.746022E-7	-1.587500
61.008580	9.994170E-7	-1.631200
61.312010	1.030663E-6	-1.675000
61.429208	1.061492E-6	-1.718700
61.548463	1.090988E-6	-1.762500
61.667322	1.121464E-6	-1.806200
61.785033	1.151978E-6	-1.850000
61.904558	1.182449E-6	-1.893700
62.022735	1.213335E-6	-1.937500
62.140697	1.243546E-6	-1.981200
62.259838	1.255780E-6	-2.000000
62.376957	1.215227E-6	-1.950000
62.495394	1.178380E-6	-1.900000
62.613801	1.142175E-6	-1.850000
62.731514	1.106524E-6	-1.800000
62.850305	1.072083E-6	-1.750000
62.970147	1.037614E-6	-1.700000
63.088481	1.003373E-6	-1.650000
63.207138	9.742379E-7	-1.600000
63.393846	9.370202E-7	-1.550000
63.511595	9.044184E-7	-1.500000
63.631259	8.722403E-7	-1.450000
63.749421	8.393658E-7	-1.400000
63.866230	8.080227E-7	-1.350000
63.986254	7.766006E-7	-1.300000
64.104959	7.453532E-7	-1.250000
64.223024	7.147042E-7	-1.200000
64.341373	6.836009E-7	-1.150000
64.460075	6.535519E-7	-1.100000
64.578134	6.232651E-7	-1.050000
64.695994	5.929004E-7	-1.000000
64.813770	5.626657E-7	-0.950000
64.932775	5.317938E-7	-0.900000
65.050549	5.022736E-7	-0.870000
65.168787	4.725109E-7	-0.800000
65.288313	4.420894E-7	-0.750000
65.405894	4.123290E-7	-0.700000
65.525342	3.823112E-7	-0.650000
65.644090	3.524859E-7	-0.600000
65.762711	3.219089E-7	-0.550000
65.880886	2.916071E-7	-0.500000
65.998895	2.618510E-7	-0.450000
66.117198	2.315927E-7	-0.400000
66.236202	2.018728E-7	-0.350000
66.353803	1.712607E-7	-0.300000
66.471683	1.420521E-7	-0.250000
66.591646	1.116872E-7	-0.200000
66.709693	8.175360E-8	-0.150000
66.828583	5.241921E-8	-0.100000
66.945608	2.175097E-8	-0.050000
67.064799	6.965764E-9	0.000000
67.183050	3.674677E-8	0.050000
67.301070	6.609316E-8	0.100000
67.418800	9.608735E-8	0.150000
67.536242	1.265760E-7	0.200000
67.655196	1.579077E-7	0.250000
67.772781	1.871696E-7	0.300000
67.890698	2.176604E-7	0.350000
68.009425	2.488336E-7	0.400000
68.127931	2.788204E-7	0.450000
68.245993	3.066000E-7	0.500000
68.364076	3.352166E-7	0.550000
68.482118	3.644237E-7	0.600000
68.599294	3.947461E-7	0.650000
68.718205	4.288486E-7	0.700000
68.837699	4.625482E-7	0.750000
68.955329	4.887613E-7	0.800000
69.073945	5.087522E-7	0.850000
69.191777	5.487839E-7	0.900000
69.310191	5.942856E-7	0.950000
69.428307	5.784478E-7	1.000000
69.545968	6.420660E-7	1.050000
69.664840	7.738501E-7	1.100000
69.784019	8.841980E-7	1.150000
69.902673	1.049991E-6	1.200000
70.021614	1.049992E-6	1.250000
70.140439	1.049991E-6	1.300000
70.258878	1.049990E-6	1.350000
70.378185	8.495841E-7	1.400000
70.620189	8.865479E-7	1.450000
70.807201	9.115028E-7	1.500000
71.049283	9.349218E-7	1.550000
71.235383	9.753775E-7	1.600000
71.477785	1.008748E-6	1.650000
71.595283	1.042004E-6	1.700000
71.714933	1.075594E-6	1.750000
71.834459	1.109093E-6	1.800000
71.953269	1.143625E-6	1.850000
72.072332	1.177396E-6	1.900000
72.191244	1.211756E-6	1.950000
72.309854	1.246599E-6	2.000000
72.427794	1.205684E-6	1.950000
72.547314	1.169597E-6	1.900000
72.665160	1.133734E-6	1.850000
72.783695	1.099082E-6	1.800000
72.901609	1.064943E-6	1.750000
73.017986	1.031463E-6	1.700000
73.137366	1.012890E-6	1.650000
73.324596	9.668103E-7	1.600000
73.441151	9.332990E-7	1.750000
73.559574	9.017462E-7	1.500000
73.676183	8.689637E-7	1.450000
73.795001	8.380131E-7	1.400000
73.917555	8.063780E-7	1.350000
74.035137	7.758038E-7	1.300000
74.153137	7.456991E-7	1.250000
74.271761	7.145208E-7	1.200000
74.391586	6.839706E-7	1.150000
74.509247	6.535694E-7	1.100000
74.627211	6.233225E-7	1.050000
74.745310	5.939179E-7	1.000000
74.864121	5.630582E-7	0.950000
74.981167	5.325992E-7	0.900000
75.101234	5.025242E-7	0.850000
75.218677	4.725936E-7	0.800000
75.337614	4.421756E-7	0.750000
75.454712	4.117697E-7	0.700000
75.573835	3.821609E-7	0.650000
75.691685	3.523246E-7	0.600000
75.811741	3.223862E-7	0.550000
75.930662	2.914492E-7	0.500000
76.047226	2.609936E-7	0.450000
76.164786	2.318902E-7	0.400000
76.283866	2.020317E-7	0.350000
76.403238	1.716339E-7	0.300000
76.521012	1.415152E-7	0.250000
76.639548	1.116265E-7	0.200000
76.756233	8.229355E-8	0.150000
76.875338	5.179575E-8	0.100000
76.994390	2.239901E-8	0.050000
77.112311	7.700832E-9	0.000000
77.229906	3.719105E-8	-0.050000
77.349515	6.563420E-8	-0.100000
77.467767	9.594687E-8	-0.170000
77.585617	1.264333E-7	-0.200000
77.703091	1.570063E-7	-0.250000
77.821764	1.867018E-7	-0.300000
77.940076	2.182448E-7	-0.350000
78.058201	2.492237E-7	-0.400000
78.177130	2.789229E-7	-0.450000
78.294845	3.082073E-7	-0.500000
78.413546	3.341378E-7	-0.570000
78.530365	3.641084E-7	-0.600000
78.648285	3.955799E-7	-0.650000
78.767443	4.307352E-7	-0.700000
78.885272	4.630390E-7	-0.750000
79.003285	4.870083E-7	-0.800000
79.121261	5.081342E-7	-0.850000
79.239060	5.613560E-7	-0.900000
79.356227	5.966758E-7	-0.950000
79.475165	5.891355E-7	-1.000000
79.593936	6.455657E-7	-1.050000
79.713125	7.978295E-7	-1.100000
79.831275	9.267428E-7	-1.150000
79.948506	1.049955E-6	-1.200000
80.066334	1.049954E-6	-1.250000
80.185299	1.049956E-6	-1.300000
80.304724	1.049954E-6	-1.350000
80.422423	8.506057E-7	-1.400000
80.665786	8.892546E-7	-1.450000
80.853914	9.138543E-7	-1.500000
81.095862	9.352640E-7	-1.550000
81.283741	9.792834E-7	-1.600000
81.526241	1.014670E-6	-1.650000
81.644641	1.048724E-6	-1.700000
81.762918	1.082468E-6	-1.750000
81.881456	1.117799E-6	-1.800000
81.999385	1.152446E-6	-1.850000
82.117867	1.187399E-6	-1.900000
82.236236	1.222592E-6	-1.950000
82.354975	1.258106E-6	-2.000000
82.472917	1.216693E-6	-1.950000
82.590743	1.178882E-6	-1.900000
82.710575	1.142755E-6	-1.850000
82.829086	1.107149E-6	-1.800000
82.948529	1.072210E-6	-1.750000
83.066418	1.038191E-6	-1.700000
83.184418	1.003578E-6	-1.650000
83.301902	9.741219E-7	-1.600000
83.488854	9.369791E-7	-1.750000
83.606247	9.044992E-7	-1.500000
83.725196	8.715502E-7	-1.450000
83.842776	8.393219E-7	-1.400000
83.961615	8.068921E-7	-1.350000
84.079701	7.762870E-7	-1.300000
84.197362	7.456638E-7	-1.250000
84.315555	7.146749E-7	-1.200000
84.433109	6.842161E-7	-1.150000
84.550753	6.537555E-7	-1.100000
84.669497	6.239033E-7	-1.050000
84.786321	5.930618E-7	-1.000000
84.905789	5.628033E-7	-0.970000
85.024765	5.324381E-7	-0.900000
85.143095	5.025066E-7	-0.850000
85.261143	4.731162E-7	-0.800000
85.379102	4.426443E-7	-0.770000
85.498177	4.122021E-7	-0.700000
85.615851	3.823435E-7	-0.650000
85.735189	3.519201E-7	-0.600000
85.853025	3.218756E-7	-0.550000
85.970258	2.907607E-7	-0.500000
86.088203	2.618557E-7	-0.450000
86.207673	2.312494E-7	-0.400000
86.324315	2.016856E-7	-0.350000
86.443362	1.715495E-7	-0.300000
86.561373	1.408433E-7	-0.250000
86.679538	1.112994E-7	-0.200000
86.799187	8.173681E-8	-0.150000
86.917218	5.224990E-8	-0.100000
87.035753	2.240974E-8	-0.050000
87.153978	7.300366E-9	0.000000
87.271860	3.642505E-8	0.050000
87.391311	6.625966E-8	0.100000
87.509465	9.636241E-8	0.150000
87.628946	1.260106E-7	0.200000
87.747510	1.784786E-7	0.250000
87.864237	1.859739E-7	0.300000
87.983352	2.179347E-7	0.350000
88.101268	2.486410E-7	0.400000
88.219342	2.789402E-7	0.450000
88.338483	3.074719E-7	0.500000
88.456212	3.343956E-7	0.550000
88.573957	3.651180E-7	0.600000
88.691920	3.949835E-7	0.650000
88.811051	4.297847E-7	0.700000
88.929274	4.625579E-7	0.750000
89.048252	4.893341E-7	0.800000
89.167044	5.157761E-7	0.870000
89.287286	5.449331E-7	0.900000
89.406207	5.935912E-7	0.950000
89.523837	5.925855E-7	1.000000
89.642487	6.472953E-7	1.050000
89.761623	8.233375E-7	1.100000
89.878561	9.281047E-7	1.150000
89.995952	1.049991E-6	1.200000
90.114014	1.049990E-6	1.250000
90.233136	1.049991E-6	1.300000
90.351444	1.049991E-6	1.350000
90.470147	8.496230E-7	1.400000
90.711847	8.860009E-7	1.450000
90.899260	9.114582E-7	1.500000
91.140414	9.360805E-7	1.550000
91.328008	9.751809E-7	1.600000
91.570318	1.009218E-6	1.650000
91.688918	1.041992E-6	1.700000
91.807226	1.075556E-6	1.750000
91.925253	1.108780E-6	1.800000
92.044199	1.143011E-6	1.850000
92.161825	1.177362E-6	1.900000
92.278732	1.211866E-6	1.950000
92.398972	1.246236E-6	2.000000
92.518198	1.205552E-6	1.950000
92.637228	1.168932E-6	1.900000
92.754786	1.133630E-6	1.850000
92.874617	1.098392E-6	1.800000
92.991860	1.064987E-6	1.750000
93.110623	1.031306E-6	1.700000
93.228966	1.014993E-6	1.650000
93.415314	9.662135E-7	1.600000
93.534111	9.334400E-7	1.550000
93.653166	9.010013E-7	1.500000
93.771005	8.695419E-7	1.450000
93.888509	8.374920E-7	1.400000
94.006183	8.066791E-7	1.350000
94.125909	7.758271E-7	1.300000
94.248913	7.450248E-7	1.250000
94.367321	7.151828E-7	1.200000
94.485540	6.842081E-7	1.150000
94.604331	6.535461E-7	1.100000
94.723261	6.231638E-7	1.050000
94.841025	5.929775E-7	1.000000
94.958765	5.628046E-7	0.950000
95.078124	5.319661E-7	0.900000
95.195876	5.025543E-7	0.870000
95.314412	4.723751E-7	0.800000
95.433095	4.423628E-7	0.750000
95.550829	4.123641E-7	0.700000
95.669136	3.815229E-7	0.650000
95.788225	3.520387E-7	0.600000
95.906209	3.218939E-7	0.550000
96.023488	2.923091E-7	0.500000
96.142734	2.619054E-7	0.450000
96.260454	2.319338E-7	0.400000
96.379135	2.019878E-7	0.370000
96.496288	1.718524E-7	0.300000
96.615296	1.417704E-7	0.250000
96.733954	1.115298E-7	0.200000
96.853174	8.166479E-8	0.150000
96.970493	5.268362E-8	0.100000
97.088759	2.188682E-8	0.050000
97.208231	7.390116E-9	0.000000
97.325551	3.653066E-8	-0.050000
97.443094	6.651204E-8	-0.100000
97.561518	9.608818E-8	-0.170000
97.679524	1.271305E-7	-0.200000
97.797128	1.573972E-7	-0.250000
97.914780	1.862355E-7	-0.300000
98.034670	2.190503E-7	-0.350000
98.151818	2.491543E-7	-0.400000
98.270008	2.796468E-7	-0.450000
98.388494	3.087655E-7	-0.500000
98.507964	3.357275E-7	-0.550000
98.626213	3.641019E-7	-0.600000
98.744427	3.958716E-7	-0.670000
98.863229	4.310380E-7	-0.700000
98.981034	4.629264E-7	-0.750000
99.099334	4.902722E-7	-0.800000
99.218190	5.080087E-7	-0.850000
99.336299	5.472718E-7	-0.900000
99.455399	5.965121E-7	-0.950000
99.573561	5.806770E-7	-1.000000
99.691876	6.490978E-7	-1.050000
99.810791	7.072269E-7	-1.100000
99.933095	9.093401E-7	-1.150000
100.051185	1.049521E-6	-1.200000
100.170629	1.049956E-6	-1.250000
100.289212	1.049955E-6	-1.300000
100.406338	1.049955E-6	-1.350000
100.525518	8.505242E-7	-1.400000
100.766302	8.893387E-7	-1.450000
100.954232	9.141540E-7	-1.700000
101.196378	9.354783E-7	-1.550000
101.382007	9.791713E-7	-1.600000
101.625366	1.014477E-6	-1.650000
101.743870	1.048600E-6	-1.700000
101.861855	1.082924E-6	-1.750000
101.980431	1.116829E-6	-1.800000
102.102870	1.152140E-6	-1.850000
102.221254	1.187311E-6	-1.900000
102.339335	1.222361E-6	-1.950000
102.457943	1.257864E-6	-2.000000
102.577298	1.293085E-6	-2.050000
102.695211	1.329295E-6	-2.100000
102.812864	1.355135E-6	-2.150000
102.931701	1.390126E-6	-2.200000
103.049571	1.409957E-6	-2.250000
103.168442	1.443089E-6	-2.300000
103.287055	1.480701E-6	-2.350000
103.407054	1.518228E-6	-2.400000
103.525239	1.552188E-6	-2.450000
103.643856	1.789847E-6	-2.500000
103.763032	1.632445E-6	-2.550000
103.881136	1.666036E-6	-2.600000
103.999153	1.709924E-6	-2.650000
104.117537	1.747840E-6	-2.700000
104.235293	1.793627E-6	-2.750000
104.352317	1.818057E-6	-2.800000
104.470809	1.862008E-6	-2.850000
104.591084	1.887819E-6	-2.900000
104.709694	1.955861E-6	-2.950000
104.826633	1.959583E-6	-3.000000
104.945015	1.990480E-6	-3.000000
105.062929	1.969643E-6	-2.925000
105.181859	1.908994E-6	-2.850000
105.299762	1.842055E-6	-2.775000
105.418254	1.794597E-6	-2.700000
105.537263	1.727450E-6	-2.625000
105.655265	1.680141E-6	-2.550000
105.774740	1.605880E-6	-2.475000
105.892886	1.553688E-6	-2.400000
106.010434	1.491367E-6	-2.325000
106.128595	1.452272E-6	-2.250000
106.247467	1.380353E-6	-2.175000
106.365090	1.310970E-6	-2.100000
106.484501	1.256926E-6	-2.025000
106.603189	1.203206E-6	-1.950000
106.720923	1.150581E-6	-1.875000
106.838335	1.098362E-6	-1.800000
106.955173	1.047270E-6	-1.725000
107.073981	1.020376E-6	-1.650000
107.261874	9.492587E-7	-1.575000
107.380482	8.962404E-7	-1.500000
107.498457	8.499013E-7	-1.425000
107.616402	8.025581E-7	-1.350000
107.735112	7.557575E-7	-1.275000
107.852883	7.093728E-7	-1.200000
107.970564	6.632055E-7	-1.125000
108.089178	6.184752E-7	-1.050000
108.207272	5.728033E-7	-0.975000
108.324263	5.279969E-7	-0.900000
108.441226	4.823343E-7	-0.825000
108.560285	4.377449E-7	-0.750000
108.678634	3.935749E-7	-0.675000
108.795879	3.482963E-7	-0.600000
108.915091	3.032325E-7	-0.525000
109.035245	2.565473E-7	-0.450000
109.153912	2.103224E-7	-0.375000
109.271878	1.640475E-7	-0.300000
109.390191	1.185980E-7	-0.225000
109.509729	7.472641E-8	-0.150000
109.628784	3.573970E-8	-0.075000
109.746322	9.081049E-9	0.000000
109.864530	5.560600E-8	0.077000
109.983236	1.040682E-7	0.170000
110.102437	1.542280E-7	0.225000
110.219527	1.930913E-7	0.300000
110.337635	2.277761E-7	0.375000
110.455568	2.857097E-7	0.470000
110.572952	3.478256E-7	0.525000
110.691916	3.582310E-7	0.600000
110.810481	4.441078E-7	0.675000
110.927785	6.023120E-7	0.750000
111.045666	7.766275E-7	0.825000
111.163631	1.026123E-6	0.900000
111.281594	1.049991E-6	0.975000
111.399191	1.049991E-6	1.050000
111.518156	1.049993E-6	1.125000
111.636377	1.049991E-6	1.200000
111.755561	7.751401E-7	1.275000
111.998061	8.306267E-7	1.350000
112.184377	8.669560E-7	1.425000
112.425266	9.146492E-7	1.500000
112.613719	9.619066E-7	1.575000
112.854601	1.012558E-6	1.650000
112.971887	1.062612E-6	1.725000
113.089911	1.112575E-6	1.800000
113.207631	1.164423E-6	1.875000
113.325733	1.215950E-6	1.950000
113.443887	1.268292E-6	2.025000
113.563253	1.321178E-6	2.100000
113.681323	1.398287E-6	2.175000
113.799377	1.415909E-6	2.250000
113.918248	1.501118E-6	2.325000
114.035203	1.735146E-6	2.400000
114.153871	1.568540E-6	2.475000
114.273362	1.639818E-6	2.550000
114.391468	1.703482E-6	2.625000
114.509021	1.757365E-6	2.700000
114.627290	1.802957E-6	2.775000
114.745263	1.870329E-6	2.850000
114.862875	1.908076E-6	2.925000
114.982072	1.979678E-6	3.000000
115.099202	1.947314E-6	2.925000
115.217365	1.890593E-6	2.850000
115.335026	1.827131E-6	2.775000
115.452695	1.755303E-6	2.700000
115.570724	1.699606E-6	2.625000
115.687716	1.645959E-6	2.550000
115.805055	1.798561E-6	2.475000
115.923153	1.549422E-6	2.400000
116.041440	1.484336E-6	2.325000
116.159777	1.440066E-6	2.250000
116.278326	1.380512E-6	2.175000
116.397622	1.299928E-6	2.100000
116.515578	1.246185E-6	2.025000
116.635081	1.193991E-6	1.950000
116.753370	1.142416E-6	1.875000
116.871239	1.091586E-6	1.800000
116.990134	1.041819E-6	1.725000
117.108887	1.005216E-6	1.650000
117.297254	9.430725E-7	1.575000
117.415562	8.962803E-7	1.500000
117.535294	8.482083E-7	1.425000
117.653738	8.010797E-7	1.350000
117.771543	7.545706E-7	1.275000
117.890156	7.081603E-7	1.200000
118.007830	6.630831E-7	1.125000
118.125689	6.173451E-7	1.050000
118.244009	5.719624E-7	0.975000
118.361808	5.267706E-7	0.900000
118.479984	4.816630E-7	0.825000
118.598286	4.370578E-7	0.750000
118.717345	3.919095E-7	0.675000
118.834619	3.473345E-7	0.600000
118.953114	3.027964E-7	0.525000
119.071267	2.583775E-7	0.450000
119.188874	2.140475E-7	0.375000
119.307461	1.674870E-7	0.300000
119.425254	1.220862E-7	0.225000
119.543800	7.540160E-8	0.150000
119.661874	3.065866E-8	0.075000
119.781942	1.156468E-8	0.000000
119.899393	5.510306E-8	-0.075000
120.018209	9.783184E-8	-0.150000
120.137301	1.436421E-7	-0.225000
120.259337	1.998833E-7	-0.300000
120.377848	2.409663E-7	-0.375000
120.496055	2.747479E-7	-0.450000
120.615267	3.377139E-7	-0.525000
120.732900	3.978042E-7	-0.600000
120.853512	3.748422E-7	-0.675000
120.971428	5.562583E-7	-0.750000
121.088982	7.251003E-7	-0.825000
121.208007	9.465196E-7	-0.900000
121.326982	1.049956E-6	-0.975000
121.444983	1.049955E-6	-1.050000
121.563984	1.049954E-6	-1.125000
121.682959	1.049955E-6	-1.200000
121.802000	7.753404E-7	-1.275000
122.044594	8.323224E-7	-1.350000
122.232360	8.681506E-7	-1.425000
122.474046	9.139192E-7	-1.700000
122.660343	9.651978E-7	-1.575000
122.902023	1.018583E-6	-1.650000
123.020933	1.069660E-6	-1.725000
123.140187	1.121618E-6	-1.800000
123.258192	1.174024E-6	-1.875000
123.375803	1.226627E-6	-1.950000
123.494246	1.280053E-6	-2.025000
123.614643	1.333145E-6	-2.100000
123.733232	1.416082E-6	-2.175000
123.851396	1.446228E-6	-2.250000
123.970738	1.727172E-6	-2.325000
124.087309	1.562646E-6	-2.400000
124.205182	1.591014E-6	-2.475000
124.324173	1.682819E-6	-2.750000
124.441669	1.716266E-6	-2.625000
124.560425	1.779369E-6	-2.700000
124.678555	1.846160E-6	-2.775000
124.796053	1.864445E-6	-2.850000
124.915073	1.954018E-6	-2.925000
125.032013	1.987714E-6	-3.000000
125.150673	2.062242E-6	-3.075000
125.268318	2.108217E-6	-3.150000
125.387364	2.166957E-6	-3.225000
125.504222	2.229074E-6	-3.300000
125.622023	2.304601E-6	-3.375000
125.739611	2.336265E-6	-3.450000
125.857593	2.375410E-6	-3.525000
125.976787	2.458540E-6	-3.600000
126.093833	2.495879E-6	-3.675000
126.212924	2.566725E-6	-3.750000
126.331155	2.620484E-6	-3.825000
126.449232	2.663355E-6	-3.900000
126.569427	2.730199E-6	-3.975000
126.687868	2.802304E-6	-4.050000
126.805538	2.848215E-6	-4.125000
126.924094	2.924406E-6	-4.200000
127.041494	2.983277E-6	-4.275000
127.159532	3.026516E-6	-4.350000
127.278086	3.100268E-6	-4.425000
127.395917	3.127629E-6	-4.500000
127.514735	3.258973E-6	-4.775000
127.631097	3.263845E-6	-4.650000
127.749267	3.325824E-6	-4.725000
127.866503	3.367639E-6	-4.800000
127.985827	3.407878E-6	-4.875000
128.104771	3.459733E-6	-4.950000
128.224493	3.495898E-6	-5.000000
128.343075	3.419378E-6	-4.875000
128.460343	3.322675E-6	-4.750000
128.577818	3.204090E-6	-4.625000
128.695954	3.145735E-6	-4.500000
128.814063	3.050909E-6	-4.375000
128.933149	2.924467E-6	-4.250000
129.050632	2.847851E-6	-4.125000
129.169158	2.723827E-6	-4.000000
129.286334	2.614162E-6	-3.875000
129.404854	2.539569E-6	-3.750000
129.523109	2.431713E-6	-3.625000
129.640978	2.364672E-6	-3.500000
129.759804	2.207191E-6	-3.375000
129.876251	2.143094E-6	-3.250000
129.994128	2.077392E-6	-3.125000
130.113026	1.975807E-6	-3.000000
130.231779	1.833971E-6	-2.875000
130.349294	1.721922E-6	-2.750000
130.466340	1.635762E-6	-2.625000
130.584427	1.545876E-6	-2.500000
130.701903	1.467877E-6	-2.375000
130.820760	1.351541E-6	-2.250000
130.937816	1.273733E-6	-2.125000
131.057181	1.225819E-6	-2.000000
131.174240	1.138294E-6	-1.875000
131.293485	1.052359E-6	-1.750000
131.411618	9.797168E-7	-1.625000
131.598207	8.823262E-7	-1.500000
131.717595	8.042598E-7	-1.375000
131.835265	7.283418E-7	-1.250000
131.953921	6.508512E-7	-1.125000
132.071897	5.680291E-7	-1.000000
132.190794	4.875393E-7	-0.875000
132.309043	4.145810E-7	-0.750000
132.426331	3.618815E-7	-0.625000
132.545090	2.940413E-7	-0.500000
132.662924	1.849378E-7	-0.375000
132.781592	9.445438E-8	-0.250000
132.900263	1.171536E-7	-0.125000
133.018261	9.535287E-8	0.000000
133.136134	4.005377E-7	0.125000
133.254974	6.702770E-7	0.250000
133.374383	1.039388E-6	0.375000
133.493931	1.049990E-6	0.500000
133.612932	1.049989E-6	0.625000
133.730942	1.049990E-6	0.750000
133.849933	5.395293E-7	0.875000
134.091313	6.204630E-7	1.000000
134.278323	6.883785E-7	1.125000
134.521333	7.724313E-7	1.250000
134.707335	8.414199E-7	1.375000
134.951332	9.181659E-7	1.500000
135.137333	1.000270E-6	1.625000
135.381333	1.086524E-6	1.750000
135.499334	1.172467E-6	1.875000
135.617334	1.260425E-6	2.000000
135.735777	1.340745E-6	2.125000
135.852956	1.471149E-6	2.250000
135.970788	1.562339E-6	2.375000
136.089802	1.656973E-6	2.500000
136.207872	1.748836E-6	2.625000
136.326214	1.839874E-6	2.750000
136.445586	1.935417E-6	2.875000
136.563397	2.023400E-6	3.000000
136.680468	2.121976E-6	3.125000
136.798330	2.208742E-6	3.250000
136.915185	2.310974E-6	3.375000
137.033620	2.408349E-6	3.500000
137.151307	2.504134E-6	3.625000
137.269261	2.601660E-6	3.750000
137.388478	2.696943E-6	3.875000
137.505913	2.796538E-6	4.000000
137.624294	2.896505E-6	4.125000
137.742947	2.994981E-6	4.250000
137.860954	3.093601E-6	4.375000
137.980132	3.183064E-6	4.500000
138.097802	3.279800E-6	4.625000
138.215850	3.399304E-6	4.750000
138.334447	3.482812E-6	4.875000
138.452052	3.593724E-6	5.000000
138.571560	3.426992E-6	4.875000
138.688598	3.346190E-6	4.750000
138.807607	3.213455E-6	4.625000
138.924753	3.122378E-6	4.700000
139.043584	3.011291E-6	4.375000
139.161058	2.901226E-6	4.250000
139.278072	2.831513E-6	4.125000
139.396359	2.735858E-6	4.000000
139.515752	2.601567E-6	3.875000
139.633334	2.502923E-6	3.750000
139.750287	2.418096E-6	3.625000
139.868418	2.320600E-6	3.500000
139.986041	2.240765E-6	3.375000
140.104437	2.110990E-6	3.250000
140.221523	2.006869E-6	3.125000
140.338357	1.966077E-6	3.000000
140.457351	1.831492E-6	2.875000
140.575211	1.728420E-6	2.750000
140.693394	1.655078E-6	2.625000
140.811522	1.542413E-6	2.500000
140.929205	1.453997E-6	2.375000
141.046771	1.356083E-6	2.250000
141.164820	1.259726E-6	2.125000
141.281916	1.216795E-6	2.000000
141.401630	1.130756E-6	1.875000
141.518822	1.045930E-6	1.750000
141.635796	9.658163E-7	1.625000
141.822964	8.863041E-7	1.500000
141.940841	8.045980E-7	1.375000
142.058634	7.267475E-7	1.250000
142.175768	6.500298E-7	1.125000
142.293073	5.740868E-7	1.000000
142.411997	4.998788E-7	0.875000
142.530440	4.286218E-7	0.750000
142.648911	3.562196E-7	0.625000
142.767343	2.735139E-7	0.500000
142.886162	1.890569E-7	0.375000
143.005105	1.382251E-7	0.270000
143.123378	5.810136E-8	0.125000
143.243029	5.153610E-8	0.000000
143.360704	2.262388E-7	-0.125000
143.477742	5.275464E-7	-0.250000
143.594798	8.268411E-7	-0.375000
143.712372	1.049954E-6	-0.500000
143.830083	1.049956E-6	-0.625000
143.949209	1.049955E-6	-0.750000
144.068899	5.377257E-7	-0.875000
144.312015	6.187365E-7	-1.000000
144.499604	6.873794E-7	-1.125000
144.740528	7.738865E-7	-1.250000
144.927570	8.420561E-7	-1.375000
145.169112	9.166590E-7	-1.500000
145.356404	1.004485E-6	-1.625000
145.598409	1.093998E-6	-1.750000
145.716857	1.182128E-6	-1.875000
145.834826	1.270559E-6	-2.000000
145.952123	1.372597E-6	-2.125000
146.069729	1.471085E-6	-2.250000
146.186459	1.582461E-6	-2.375000
146.306483	1.676671E-6	-2.500000
146.424883	1.766621E-6	-2.625000
146.544336	1.857644E-6	-2.750000
146.663321	1.939717E-6	-2.875000
146.780991	2.037800E-6	-3.000000
146.897341	2.143831E-6	-3.125000
147.015868	2.228096E-6	-3.250000
147.135327	2.329088E-6	-3.375000
147.254648	2.411789E-6	-3.500000
147.371392	2.522670E-6	-3.625000
147.489137	2.622743E-6	-3.750000
147.607775	2.709584E-6	-3.875000
147.725231	2.812166E-6	-4.000000
147.843262	2.903176E-6	-4.125000
147.960575	3.000296E-6	-4.250000
148.078349	3.096385E-6	-4.375000
148.196307	3.207260E-6	-4.500000
148.314054	3.294602E-6	-4.625000
148.431447	3.383115E-6	-4.750000
148.549202	3.468226E-6	-4.875000
148.666365	3.539307E-6	-5.000000
148.783074	3.714437E-6	-5.125000
148.901450	3.762894E-6	-5.250000
149.018703	3.912173E-6	-5.375000
149.137362	3.987822E-6	-5.500000
149.255368	4.108387E-6	-5.625000
149.373970	4.178277E-6	-5.750000
149.491618	4.288340E-6	-5.875000
149.609735	4.377416E-6	-6.000000
149.728005	4.434733E-6	-6.125000
149.845048	4.623688E-6	-6.250000
149.963963	4.622694E-6	-6.375000
150.081058	4.848242E-6	-6.500000
150.200943	4.821452E-6	-6.625000
150.318609	4.995039E-6	-6.750000
150.436483	5.038422E-6	-6.875000
150.554975	5.242371E-6	-7.000000
150.674548	5.222280E-6	-7.125000
150.792262	5.358589E-6	-7.250000
150.911217	5.427169E-6	-7.375000
151.029795	5.532912E-6	-7.500000
151.146091	5.624457E-6	-7.625000
151.265263	5.872761E-6	-7.750000
151.385330	5.838103E-6	-7.875000
151.503210	6.011037E-6	-8.000000
151.620227	6.068140E-6	-8.125000
151.737790	6.164300E-6	-8.250000
151.855955	6.274740E-6	-8.375000
151.974838	6.547451E-6	-8.500000
152.091746	6.627361E-6	-8.625000
152.209659	6.766895E-6	-8.750000
152.327390	6.892273E-6	-8.875000
152.444183	6.996183E-6	-9.000000
152.563022	7.099024E-6	-9.125000
152.680429	7.209283E-6	-9.250000
152.799255	7.205274E-6	-9.375000
152.916189	7.377472E-6	-9.500000
153.035171	7.408614E-6	-9.625000
153.154632	7.461528E-6	-9.750000
153.272095	7.575420E-6	-9.875000
153.390855	7.744792E-6	-1.000000
153.508589	7.582174E-6	-9.750000
153.626522	7.331750E-6	-9.500000
153.744703	7.047620E-6	-9.250000
153.863188	6.870296E-6	-9.000000
153.980486	6.578450E-6	-8.750000
154.098515	6.333426E-6	-8.500000
154.216362	6.124196E-6	-8.250000
154.334776	5.985356E-6	-8.000000
154.452231	5.733302E-6	-7.750000
154.568995	5.425070E-6	-7.500000
154.687990	5.279197E-6	-7.250000
154.805555	5.022425E-6	-7.000000
154.924392	4.848632E-6	-6.750000
155.041730	4.682359E-6	-6.500000
155.159815	4.534605E-6	-6.250000
155.276296	4.215460E-6	-6.000000
155.394772	4.079036E-6	-5.750000
155.512030	3.895790E-6	-5.500000
155.630139	3.677315E-6	-5.250000
155.748268	3.498491E-6	-5.000000
155.866191	3.293733E-6	-4.750000
155.983377	3.090518E-6	-4.500000
156.101978	2.852262E-6	-4.250000
156.221388	2.738205E-6	-4.000000
156.338363	2.519647E-6	-3.750000
156.456516	2.328612E-6	-3.500000
156.574751	2.174776E-6	-3.250000
156.691598	1.982409E-6	-3.000000
156.809007	1.777792E-6	-2.750000
156.928056	1.610967E-6	-2.500000
157.045862	1.422707E-6	-2.250000
157.164584	1.190065E-6	-2.000000
157.283041	1.017102E-6	-1.750000
157.400712	8.790049E-7	-1.500000
157.587461	5.840703E-7	-1.250000
157.704825	1.050060E-6	-1.000000
157.823412	1.050064E-6	-0.750000
157.941413	1.050066E-6	-0.500000
158.060116	1.050070E-6	-0.250000
158.179970	3.570202E-8	0.000000
158.422026	1.840090E-7	0.250000
158.610179	3.296047E-7	0.500000
158.852376	4.839867E-7	0.750000
159.038507	6.307420E-7	1.000000
159.279912	7.881267E-7	1.250000
159.466457	9.305255E-7	1.500000
159.771263	1.110156E-6	1.750000
159.888377	1.286403E-6	2.000000
160.007387	1.498638E-6	2.250000
160.126451	1.697479E-6	2.500000
160.244138	1.878607E-6	2.750000
160.362076	2.073881E-6	3.000000
160.479423	2.238087E-6	3.250000
160.597977	2.455915E-6	3.500000
160.715422	2.649585E-6	3.750000
160.833736	2.821333E-6	4.000000
160.953133	3.043393E-6	4.250000
161.070739	3.207154E-6	4.500000
161.188410	3.420602E-6	4.750000
161.306423	3.595314E-6	5.000000
161.424915	3.837124E-6	5.250000
161.544030	4.048481E-6	5.500000
161.664003	4.163941E-6	5.750000
161.782044	4.295753E-6	6.000000
161.898871	4.516073E-6	6.250000
162.016067	4.680699E-6	6.500000
162.134605	5.024638E-6	6.750000
162.251610	5.216486E-6	7.000000
162.368809	5.503133E-6	7.250000
162.487776	5.742733E-6	7.500000
162.604934	5.904684E-6	7.750000
162.723605	6.127835E-6	8.000000
162.843641	6.131746E-6	8.250000
162.960805	6.476024E-6	8.700000
163.077726	6.816284E-6	8.750000
163.195014	7.045463E-6	9.000000
163.313453	7.009787E-6	9.250000
163.430647	7.287447E-6	9.500000
163.548592	7.665107E-6	9.750000
163.665305	7.652508E-6	1.000000
163.782999	7.541888E-6	9.750000
163.900542	7.286739E-6	9.500000
164.018009	7.054821E-6	9.250000
164.135335	6.765760E-6	9.000000
164.253101	6.499548E-6	8.750000
164.372001	6.307780E-6	8.500000
164.489756	6.176129E-6	8.250000
164.606210	5.847796E-6	8.000000
164.724496	5.635398E-6	7.750000
164.842881	5.465394E-6	7.500000
164.959693	5.223208E-6	7.250000
165.077854	5.076968E-6	7.000000
165.194402	4.782986E-6	6.750000
165.313021	4.781024E-6	6.500000
165.432018	4.398056E-6	6.250000
165.550251	4.194866E-6	6.000000
165.669670	4.050088E-6	5.750000
165.786425	3.833697E-6	5.500000
165.904710	3.645639E-6	5.250000
166.023028	3.443783E-6	5.000000
166.140822	3.267228E-6	4.750000
166.258627	3.051658E-6	4.500000
166.377478	2.889734E-6	4.250000
166.494340	2.688828E-6	4.000000
166.612142	2.498767E-6	3.750000
166.730371	2.325010E-6	3.500000
166.848703	2.151291E-6	3.250000
166.965397	1.956801E-6	3.000000
167.083037	1.769195E-6	2.750000
167.201476	1.793800E-6	2.500000
167.319553	1.399888E-6	2.250000
167.438183	1.184242E-6	2.000000
167.557686	1.015588E-6	1.750000
167.676528	8.778057E-7	1.700000
167.863887	7.735287E-7	1.250000
167.981737	6.434473E-8	1.000000
168.100465	7.294918E-7	0.750000
168.218737	1.049742E-6	0.500000
168.336461	1.049745E-6	0.250000
168.455092	1.049747E-6	0.000000
168.573418	1.817235E-7	-0.250000
168.815011	3.312121E-7	-0.500000
169.003197	4.774087E-7	-0.750000
169.245381	6.328551E-7	-1.000000
169.434078	7.808006E-7	-1.250000
169.677826	9.279072E-7	-1.500000
169.864060	1.107583E-6	-1.750000
170.108456	1.293726E-6	-2.000000
170.227433	1.538481E-6	-2.250000
170.344789	1.723329E-6	-2.500000
170.463513	1.890091E-6	-2.750000
170.581221	2.083005E-6	-3.000000
170.699215	2.267170E-6	-3.250000
170.817429	2.476952E-6	-3.500000
170.936067	2.660274E-6	-3.750000
171.054345	2.859662E-6	-4.000000
171.173049	3.063033E-6	-4.250000
171.292014	3.261047E-6	-4.500000
171.412028	3.377506E-6	-4.750000
171.529022	3.673747E-6	-5.000000
171.649056	3.778219E-6	-5.250000
171.767774	3.929960E-6	-5.700000
171.885591	4.148109E-6	-5.750000
172.003705	4.298398E-6	-6.000000
172.121774	4.511702E-6	-6.250000
172.239270	4.702452E-6	-6.500000
172.358952	4.975303E-6	-6.750000
172.476439	5.240317E-6	-7.000000
172.595211	5.522664E-6	-7.250000
172.714044	5.788184E-6	-7.500000
172.833053	5.899058E-6	-7.750000
172.950602	5.987721E-6	-8.000000
173.068180	6.195729E-6	-8.250000
173.185111	6.400268E-6	-8.500000
173.303686	6.742883E-6	-8.750000
173.423131	7.024775E-6	-9.000000
173.541172	7.018509E-6	-9.250000
173.658351	7.368521E-6	-9.700000
173.777348	7.683598E-6	-9.750000
173.894589	7.713425E-6	-1.000000
174.013383	7.581129E-6	-9.750000
174.131465	7.348316E-6	-9.500000
174.249936	7.103097E-6	-9.250000
174.367735	6.903141E-6	-9.000000
174.484463	6.556680E-6	-8.750000
174.603043	6.345654E-6	-8.500000
174.721142	6.090870E-6	-8.250000
174.840086	5.892948E-6	-8.000000
174.958067	5.643075E-6	-7.750000
175.077136	5.447717E-6	-7.500000
175.196095	5.223457E-6	-7.250000
175.314536	5.070382E-6	-7.000000
175.433060	4.898150E-6	-6.750000
175.550718	4.681414E-6	-6.700000
175.668437	4.433995E-6	-6.250000
175.786657	4.266791E-6	-6.000000
175.905081	4.056702E-6	-5.750000
176.023060	3.851489E-6	-5.500000
176.141559	3.627656E-6	-5.250000
176.260795	3.514905E-6	-5.000000
176.378298	3.292682E-6	-4.750000
176.496047	3.110630E-6	-4.500000
176.613995	2.880347E-6	-4.250000
176.732203	2.722779E-6	-4.000000
176.850379	2.523625E-6	-3.750000
176.968466	2.358361E-6	-3.500000
177.085454	2.139713E-6	-3.250000
177.204073	1.968086E-6	-3.000000
177.321990	1.761219E-6	-2.750000
177.441274	1.610199E-6	-2.500000
177.560055	1.424453E-6	-2.250000
177.679389	1.192402E-6	-2.000000
177.797184	1.019472E-6	-1.750000
177.915840	8.808549E-7	-1.500000
178.103066	4.753283E-7	-1.250000
178.221877	1.050060E-6	-1.000000
178.339462	1.050064E-6	-0.750000
178.457946	1.050066E-6	-0.500000
178.575983	1.050069E-6	-0.270000
